loggingTime,loggingSample,identifierForVendor,motionTimestamp_sinceReboot,motionYaw,motionRoll,motionPitch,motionRotationRateX,motionRotationRateY,motionRotationRateZ,motionUserAccelerationX,motionUserAccelerationY,motionUserAccelerationZ,motionAttitudeReferenceFrame,motionQuaternionX,motionQuaternionY,motionQuaternionZ,motionQuaternionW,motionGravityX,motionGravityY,motionGravityZ,motionMagneticFieldX,motionMagneticFieldY,motionMagneticFieldZ,motionMagneticFieldCalibrationAccuracy
1596229835.766075,1,0,102167.9694659167,2.715995403933033,-1.22729368695454,1.279792370163653,-0.01531754620373249,0.03909693658351898,-0.04074317961931229,-0.01446926593780518,0.00532686710357666,0.01373422145843506,2,0.5546053374639416,0.3796030263308344,0.5683945592145878,0.474596694073509,-0.2701526284217834,-0.9579563140869141,-0.09662892669439316,-27.39160919189453,-40.82771301269531,13.7635498046875,2
1596229835.806236,2,0,102167.9995629167,2.715824950578526,-1.226299310542998,1.280229972905723,-0.006944797933101654,0.031214389950037,0.02046275697648525,0.02139508724212646,0.009924948215484619,-0.01717352867126465,2,0.5543118698261196,0.3799478723681466,0.5685040163501083,0.4745324946406546,-0.2696618139743805,-0.9580817818641663,-0.09675592929124832,-27.52809906005859,-41.18917083740234,13.51300048828125,2
1596229835.826441,3,0,102168.0296609167,2.717348793613706,-1.226162173311154,1.279459570686286,0.05286137759685516,0.09603515267372131,0.02422202005982399,0.007589548826217651,0.02161866426467896,-0.04113024473190308,2,0.5540593951583365,0.3801277726454847,0.5691245178823059,0.473938990115622,-0.2703428268432617,-0.9578607678413391,-0.09704212844371796,-27.25110626220703,-40.88300323486328,13.71578979492188,2
1596229835.868537,4,0,102168.0597579167,2.726379453951936,-1.230060738051629,1.280312826158354,0.1111914813518524,0.1991097927093506,-0.03148085251450539,-0.02694326639175415,0.02842789888381958,-0.05712401866912842,2,0.5533636103065892,0.3820097831715522,0.5699369889093819,0.4722595456091691,-0.2699492573738098,-0.9581055045127869,-0.09571447968482971,-27.63870239257812,-41.446044921875,13.6483154296875,2
1596229835.886442,5,0,102168.0898559167,2.738978093078712,-1.233636357609475,1.281630830680462,0.1399884968996048,0.333758145570755,0.0747455433011055,0.06843125820159912,0.02548325061798096,-0.111672580242157,2,0.5518325868092199,0.3851173558122492,0.5715388492421559,0.4695836397932294,-0.2690978944301605,-0.9584821462631226,-0.09433083981275558,-27.64583587646484,-40.99330139160156,13.3311767578125,2
1596229835.928596,6,0,102168.1199529167,2.753702308984523,-1.244625815783477,1.2826048558764,0.1268820911645889,-0.2138647735118866,-0.0698305070400238,0.02352449297904968,0.004554986953735352,-0.05177712440490723,2,0.5520279816401719,0.3869506712967299,0.5716788356438373,0.4676723461316669,-0.2692331671714783,-0.9587594866752625,-0.0910685732960701,-27.79471588134766,-40.77664184570312,13.50579833984375,2
1596229835.946673,7,0,102168.1500509167,2.759680509480837,-1.257927026269931,1.283109998779256,-0.01911447010934353,-0.1388958394527435,0.06972659379243851,0.001693367958068848,-0.01798951625823975,0.2311474084854126,2,0.5546117287690172,0.3856690133333531,0.5692554898699562,0.4686292018443289,-0.2699600160121918,-0.958902895450592,-0.08733048290014267,-27.74005889892578,-40.85393524169922,13.77410888671875,2
1596229835.992713,8,0,102168.1801479167,2.755205060459208,-1.252235901708806,1.282224084701059,-0.06796104460954666,0.2229599058628082,-0.08218373358249664,-0.183437705039978,0.01938378810882568,0.1334390640258789,2,0.553951442067255,0.3854505668399213,0.5700341363938505,0.4686432490526147,-0.2702648639678955,-0.9586511850357056,-0.08913131803274155,-27.61343383789062,-40.60740661621094,13.80514526367188,2
1596229836.006885,9,0,102168.2102459167,2.744444830282398,-1.230355090552248,1.285371243073129,-0.06819241493940353,0.4849903285503387,-0.1609778702259064,-0.05353599786758423,0.02991515398025513,0.03424692153930664,2,0.5494453279900173,0.3887186343752324,0.5726558161069504,0.4680520978992643,-0.2654049694538116,-0.9595420360565186,-0.09401530772447586,-27.41688537597656,-40.78630065917969,13.56289672851562,2
1596229836.050356,10,0,102168.2403429167,2.733727590429039,-1.21036827240141,1.288087887659763,-0.05310283228754997,-0.02198108658194542,-0.04822331294417381,0.1952991187572479,-0.009519994258880615,-0.1192572712898254,2,0.5455223678174554,0.3914265456872477,0.5748412540341498,0.4677050833552596,-0.2610331475734711,-0.9603034257888794,-0.09838121384382248,-27.5673828125,-40.89432525634766,13.171142578125,2
1596229836.068805,11,0,102168.2704409167,2.722498087843769,-1.209157823241689,1.286235753858462,-0.1917522400617599,-0.4500536024570465,0.1183865517377853,0.2238262891769409,-0.03098058700561523,0.05452179908752441,2,0.5475472697501185,0.3879804016263951,0.5730726067410643,0.4703732959706611,-0.2625774443149567,-0.9597851037979126,-0.09932638704776764,-27.536865234375,-40.98663330078125,13.16970825195312,2
1596229836.111115,12,0,102168.3005379167,2.71260770228081,-1.211395644259417,1.279274118844522,-0.08732222020626068,-0.2852194309234619,0.1829134523868561,0.006398260593414307,0.03050750494003296,0.03761249780654907,2,0.5507679473766558,0.382245682534525,0.5721346469292757,0.4724453301916284,-0.2690464854240417,-0.9578074812889099,-0.1010858118534088,-27.57767486572266,-40.95197296142578,13.26446533203125,2
1596229836.12713,13,0,102168.3306359167,2.709312708798456,-1.213020173430742,1.274974964410576,-0.09170194715261459,-0.08040540665388107,0.06506968289613724,-0.1097227036952972,0.02108252048492432,0.006663084030151367,2,0.5522700255503172,0.3794112501076282,0.5721469405230429,0.4729616136652907,-0.2730652987957001,-0.9565629959106445,-0.1020898446440697,-27.60427093505859,-40.98178863525391,13.30953979492188,2
1596229836.163545,14,0,102168.3607329167,2.704908143258935,-1.210835520753018,1.272406907288813,-0.05063284561038017,-0.1217801496386528,0.08905161172151566,0.02362045645713806,0.0008348226547241211,-0.07263565063476562,2,0.5527204529373408,0.3777890056326692,0.5724480716292649,0.473369522195557,-0.2751398980617523,-0.9558112025260925,-0.1035511344671249,-27.67756652832031,-40.71479797363281,13.39874267578125,2
1596229836.18736,15,0,102168.3908309167,2.706718280446858,-1.219633220836354,1.268105700975697,-0.02596165984869003,-0.336297869682312,0.1666567176580429,0.05636602640151978,0.004153072834014893,-0.06383419036865234,2,0.5553003171343183,0.3746620114038095,0.571676197709803,0.4737681334573812,-0.2798981070518494,-0.9545378684997559,-0.1025398671627045,-27.91548156738281,-40.85585784912109,13.44134521484375,2
1596229836.225874,16,0,102168.4209279167,2.712375497784497,-1.2350229564004,1.264009215977035,0.04160232096910477,-0.2857632637023926,0.1456713825464249,-0.01567643880844116,0.014229416847229,-0.01380622386932373,2,0.5590299063110681,0.3711221110214419,0.5699011142749163,0.4743064345012539,-0.2851323187351227,-0.9533087611198425,-0.0995078831911087,-27.94630432128906,-40.44872283935547,13.9342041015625,2
1596229836.249205,17,0,102168.4510259167,2.719999821888523,-1.248986053033815,1.260442606682411,0.08270996809005737,-0.2281615287065506,0.118187814950943,-0.002332031726837158,0.01699209213256836,-0.04999476671218872,2,0.5619460356833482,0.36867427376873,0.5688092704997922,0.4740801444207914,-0.2897179126739502,-0.9522256255149841,-0.09659186750650406,-27.95102691650391,-40.29641723632812,14.06344604492188,2
1596229836.28552,18,0,102168.4811229167,2.731093644731901,-1.268516003947866,1.257223274004925,0.04525040835142136,-0.3852801322937012,0.1918984055519104,0.09277340769767761,0.02856403589248657,0.02195930480957031,2,0.5657817253120484,0.3660290413760789,0.5668397160085652,0.4739265009780466,-0.2944733798503876,-0.9512374997138977,-0.09182756394147873,-27.89791107177734,-40.26834106445312,14.40512084960938,2
1596229836.30777,19,0,102168.5112209167,2.740091884111636,-1.288626691482697,1.251587763618137,0.04812652617692947,-0.3888982534408569,0.1726933419704437,-0.006068229675292969,0.005806028842926025,0.02154040336608887,2,0.5704313474769394,0.3618269772203604,0.5648339727385925,0.4739744271992812,-0.3014045357704163,-0.94948410987854,-0.08737863600254059,-28.14055633544922,-40.03301239013672,14.61761474609375,2
1596229836.350469,20,0,102168.5413179167,2.747107695331374,-1.308056187001198,1.247444563337003,0.06304877996444702,-0.5234111547470093,0.1489358246326447,-0.03385287523269653,0.03130513429641724,0.0500868558883667,2,0.5750965296745015,0.357771209164484,0.5620807665486282,0.4746882272692989,-0.3068418204784393,-0.9481757283210754,-0.08252748847007751,-28.10482025146484,-39.91304779052734,14.8892822265625,2
1596229836.367995,21,0,102168.5714159167,2.75181108041944,-1.324668110771839,1.244784827639944,-0.00553378090262413,-0.3970517218112946,0.06423281133174896,-0.09671017527580261,0.02473872900009155,-0.03265380859375,2,0.5792148436250241,0.3542507215898987,0.5591351354790446,0.4757985890422555,-0.3106147646903992,-0.9473272562026978,-0.07803317904472351,-27.99546813964844,-39.67660522460938,15.38531494140625,2
1596229836.408083,22,0,102168.6015129167,2.753927904882164,-1.335111818428671,1.243512803428743,0.03605305403470993,-0.18907430768013,0.0763218030333519,0.02114591002464294,-0.02093243598937988,-0.0168004035949707,2,0.581900974630938,0.3519347251734685,0.5569556033738471,0.4767951051819461,-0.3125845193862915,-0.9469190835952759,-0.07506641000509262,-27.98226928710938,-39.78328704833984,15.62283325195312,2
1596229836.428159,23,0,102168.6316109167,2.760444887975321,-1.346635958942116,1.24030374916854,0.02514800056815147,-0.2014400064945221,0.1141738519072533,0.01943290233612061,0.03340685367584229,-0.01256990432739258,2,0.5843379539122512,0.349974259228624,0.5560214499938464,0.4763478211006484,-0.3163899183273315,-0.9458826184272766,-0.0721343457698822,-27.96247863769531,-39.62959289550781,15.7943115234375,2
1596229836.467466,24,0,102168.6617079167,2.763509584850449,-1.356504725085047,1.237738739945062,-0.002877774648368359,-0.2326551824808121,0.07746376842260361,-0.02442634105682373,0.003507137298583984,0.02754044532775879,2,0.5868472069438552,0.3476323115148386,0.5545560098463772,0.476686223790844,-0.3194562196731567,-0.94504714012146,-0.06952426582574844,-28.08613586425781,-39.58619689941406,16.20486450195312,2
1596229836.488257,25,0,102168.6918059167,2.764137928517681,-1.36271000430927,1.234892497962297,-0.01481205876916647,-0.1523185670375824,0.1192841827869415,-0.0005318820476531982,0.00448310375213623,0.02142369747161865,2,0.5887974265125335,0.3453542679412308,0.5536489228741169,0.4769915005287451,-0.3225120306015015,-0.9441127777099609,-0.06809604167938232,-28.19155120849609,-39.42874908447266,16.248046875,2
1596229836.5263,26,0,102168.7219029167,2.765723390164771,-1.367914020967271,1.231114449237942,-0.01032649632543325,-0.09518150985240936,0.1290374845266342,-0.002270102500915527,-0.00876384973526001,0.009081840515136719,2,0.5904178410546246,0.3432773432995587,0.553506888858299,0.4766522281362776,-0.3263528645038605,-0.9428607225418091,-0.06713487952947617,-28.34004974365234,-40.15884399414062,16.24844360351562,2
1596229836.549141,27,0,102168.7520009167,2.769034629010971,-1.374140549829633,1.226117058640434,0.009666807949542999,-0.1492689996957779,0.2166485637426376,0.07252812385559082,0.005833208560943604,-0.04049313068389893,2,0.5921768432437705,0.3410511407714573,0.5537903979078316,0.4757381069221947,-0.3313816487789154,-0.941183865070343,-0.06602141261100769,-28.16011810302734,-39.41410827636719,16.50253295898438,2
1596229836.588116,28,0,102168.7820979167,2.774348264549288,-1.384953009598126,1.218996858040344,0.03851993381977081,-0.2089637815952301,0.2844615876674652,-0.001400947570800781,0.001875400543212891,-0.04157745838165283,2,0.5951335515094178,0.3376098310318086,0.5537340237277363,0.4745674786755006,-0.338654100894928,-0.938754141330719,-0.06367131322622299,-28.48638916015625,-39.32734680175781,16.42138671875,2
1596229836.609048,29,0,102168.8121959167,2.784908110777511,-1.402946278457853,1.209100157661228,0.08697967976331711,-0.3905237317085266,0.4078833162784576,0.02605974674224854,-0.05513936281204224,-0.04796302318572998,2,0.5995647717222721,0.3331119174090359,0.5534586163612543,0.472484930667398,-0.3488878607749939,-0.935297966003418,-0.05911707133054733,-28.46836853027344,-38.96353149414062,16.50845336914062,2
1596229836.646891,30,0,102168.8422929167,2.79757070995524,-1.431381579793433,1.196450735312224,0.08378598093986511,-0.7520516514778137,0.4692214727401733,0.1622827053070068,0.03015387058258057,-0.0450708270072937,2,0.6069340345660709,0.3259204306568139,0.5511351288014568,0.470804638483639,-0.3621156215667725,-0.9307470917701721,-0.05081390216946602,-28.9373779296875,-38.58296203613281,17.15594482421875,2
1596229836.668971,31,0,102168.8723899167,2.816389660162625,-1.474577788374903,1.180032702536272,0.2205220311880112,-0.8212761282920837,0.744677722454071,0.1434406042098999,-0.2631204128265381,-0.04001235961914062,2,0.6179306687634285,0.3160148668900022,0.5464675407636997,0.4686890974130898,-0.3791326582431793,-0.9246184825897217,-0.03659258410334587,-29.11784362792969,-38.26377105712891,17.6431884765625,2
1596229836.707141,32,0,102168.90248725,2.830899121401367,-1.503490391881335,1.15719485960804,0.07911709696054459,-0.362188994884491,0.5364809036254883,0.1880302131175995,0.3747018575668335,0.004664480686187744,2,0.6266793639829373,0.3061988745052389,0.5464485779444381,0.4635826979743452,-0.4009990990161896,-0.9156792759895325,-0.02703044749796391,-29.55967712402344,-37.59906768798828,18.66378784179688,2
1596229836.729134,33,0,102168.93258425,2.860975677702609,-1.537104783917088,1.152348012269786,0.4904623329639435,0.01763591542840004,0.02794463559985161,-0.1964365243911743,0.03690117597579956,-0.1776797771453857,2,0.6319223794085631,0.3063172198735766,0.5439655410479202,0.4592878423277917,-0.4061124622821808,-0.9137205481529236,-0.01368773449212313,-29.95458984375,-37.06369781494141,19.56826782226562,2
1596229836.771227,34,0,102168.96268225,2.890588110745604,-1.560524352945343,1.155039033546849,0.5646925568580627,0.02455734461545944,-0.08700085431337357,0.05872833728790283,0.07227742671966553,-0.1747584342956543,2,0.6333115363484015,0.3111947942210417,0.5427056576749006,0.455570711301966,-0.4038610458374023,-0.9148107171058655,-0.004148595966398716,-29.88509368896484,-36.92792510986328,19.60281372070312,2
1596229836.78941,35,0,102168.99277925,2.934658148687923,-1.609896241891067,1.154396804855688,0.4666280150413513,-0.3713153004646301,-0.1405365318059921,-0.3699840605258942,0.191582202911377,-0.005226731300354004,2,0.6398571005095182,0.3138283709268951,0.5371249285853741,0.4512109564932292,-0.4041607975959778,-0.9145511388778687,0.01581071130931377,-29.84795379638672,-36.16433715820312,20.76318359375,2
1596229836.827153,36,0,102169.02287725,2.983045888410093,-1.665508556514736,1.166046451534787,0.6747279763221741,-0.3921490013599396,-0.5301247239112854,-0.2732445895671844,0.07884752750396729,-0.2313201427459717,2,0.6449711691629738,0.3203632356966469,0.5276710120255812,0.4504915602790008,-0.3920233249664307,-0.9192008972167969,0.03724082186818123,-29.73257446289062,-36.9381103515625,21.029052734375,2
1596229836.849601,37,0,102169.05297425,3.040922396536174,-1.727539643763504,1.175841510298834,0.6961877942085266,-0.2207607179880142,-0.3050083518028259,0.0824647843837738,-0.06728243827819824,0.0884937047958374,2,0.6499652346708454,0.3279887874808636,0.5186080461312363,0.4483460582638674,-0.3800494372844696,-0.9230139255523682,0.06006290018558502,-28.48513793945312,-36.40989685058594,22.46331787109375,2
1596229836.889196,38,0,102169.08307225,3.085201215432646,-1.765300662506021,1.181313418630118,0.5043542385101318,0.4865015149116516,-0.2886805832386017,-0.0255226194858551,0.002983033657073975,0.1476651430130005,2,0.6512732005257491,0.335467478307379,0.5151663347876803,0.4448689317885333,-0.3725499510765076,-0.9251055121421814,0.0733904242515564,-28.33969116210938,-36.15277862548828,22.81997680664062,2
1596229836.909692,39,0,102169.11316925,3.125166613097957,-1.790888488446529,1.186316257633979,0.3352718949317932,0.1668895781040192,-0.1790781170129776,0.1960496008396149,-0.01376461982727051,0.154252290725708,2,0.6500119800562455,0.3441333751331317,0.5147793472555868,0.4405211606117775,-0.3660294115543365,-0.9269935488700867,0.08188670873641968,-28.27684783935547,-35.92696380615234,23.01739501953125,2
1596229836.950755,40,0,102169.14326725,3.140469497343003,-1.808160181478707,1.185219067735857,0.07372146844863892,-0.232027530670166,0.1133821308612823,0.157201886177063,-0.04553866386413574,0.1218283176422119,2,0.6520509012955509,0.3450321579243838,0.5127146574204824,0.4392106451484026,-0.3655485212802887,-0.9265815019607544,0.08843513578176498,-27.97868347167969,-36.07416534423828,23.16781616210938,2
1596229836.969916,41,0,102169.17336425,3.141240312936803,-1.816794939503793,1.183025506465492,-0.04652121663093567,-0.1412097066640854,-0.02476470917463303,-0.1873989701271057,-0.006689071655273438,0.1890852451324463,2,0.6546086471937471,0.342825034699951,0.5104411133646575,0.4397820644892982,-0.3667417168617249,-0.9257542490959167,0.09208296984434128,-27.92584228515625,-36.00848388671875,23.71466064453125,2
1596229837.008973,42,0,102169.20346225,3.137055780709104,-1.807147668077911,1.187810281401118,-0.07186353206634521,0.5831292271614075,-0.268841028213501,-0.3115965127944946,-0.02267372608184814,0.1486073732376099,2,0.651812143178349,0.344807483190498,0.511844608458059,0.4407536858754475,-0.3633027374744415,-0.9275529384613037,0.08750253915786743,-27.65560913085938,-35.89102172851562,23.57180786132812,2
1596229837.030145,43,0,102169.23355925,-3.13719658882221,-1.789957683279342,1.196942135095844,0.1149104386568069,1.03482711315155,-0.3679600358009338,-0.08149024844169617,0.07028394937515259,-0.06292343139648438,2,0.6438200261398722,0.3538300340673673,0.5177808204228617,0.4384096917808299,-0.3564702868461609,-0.9309266805648804,0.07939983904361725,-28.00009155273438,-36.13496398925781,23.07608032226562,2
1596229837.068486,44,0,102169.26365625,-3.11391281550098,-1.783150351971493,1.20791521896027,0.2384011000394821,0.8326186537742615,-0.4420267939567566,-0.004071146249771118,0.07045847177505493,-0.1087982654571533,2,0.6354201626385392,0.3655791683108982,0.5231229672734113,0.4346669452534765,-0.3469954133033752,-0.9348779916763306,0.07481382042169571,-27.94522857666016,-36.31398010253906,22.38632202148438,2
1596229837.090318,45,0,102169.29375425,-3.080049671983927,-1.789327303196476,1.218074431588285,0.3809108734130859,1.037683963775635,-0.3541060090065002,0.1406112909317017,0.004392862319946289,-0.02913618087768555,2,0.6284370280513205,0.3775092570296239,0.5267505422156102,0.4302177199400899,-0.3372367322444916,-0.9384359121322632,0.07489267736673355,-28.24707794189453,-36.62998962402344,22.11013793945312,2
1596229837.130058,46,0,102169.32385125,-3.043370568095789,-1.789159629290548,1.223211832715405,0.3258402347564697,1.067315220832825,-0.1528926938772202,0.1015177369117737,-0.05317807197570801,0.007503032684326172,2,0.6201520597831687,0.3902650660452234,0.5337640969766415,0.4221378240102084,-0.332538515329361,-0.9401982426643372,0.07379079610109329,-28.33830261230469,-36.54888916015625,21.61669921875,2
1596229837.15049,47,0,102169.35394925,-3.013191195891837,-1.78972772343684,1.223966358381063,0.3005736172199249,0.8700290322303772,-0.04463342949748039,0.3108874559402466,0.09681659936904907,0.1435151100158691,2,0.6141650254281419,0.3996425667864678,0.5397789868213729,0.4143981237369583,-0.331804484128952,-0.9404549598693848,0.07382571697235107,-29.02775573730469,-36.72568511962891,21.0184326171875,2
1596229837.190162,48,0,102169.38404625,-2.983944537061356,-1.791805448590622,1.220387512390379,0.3936209380626678,0.9034556746482849,0.0955672487616539,0.0100865364074707,-0.0415835976600647,-0.1036580801010132,2,0.6096933583643378,0.4073084210341619,0.5456981113448758,0.4056937588517864,-0.3349320590496063,-0.9392324686050415,0.07525227963924408,-29.69561004638672,-36.29657745361328,20.59259033203125,2
1596229837.210719,49,0,102169.41414425,-2.950254809328627,-1.795711104344411,1.215763362119635,0.4267525970935822,0.797574520111084,0.04134880006313324,0.004978716373443604,0.05089849233627319,-0.07770454883575439,2,0.604966337120189,0.4156675992828833,0.5519551233920632,0.3957040901490108,-0.3388657867908478,-0.9376350045204163,0.07752764225006104,-30.26696014404297,-36.23063659667969,20.28079223632812,2
1596229837.249725,50,0,102169.44424125,-2.925200849233602,-1.799254675035487,1.210956735352319,0.1921321898698807,0.7394149899482727,0.1587729454040527,0.03537255525588989,-0.05712890625,0.1454635858535767,2,0.6018969984856126,0.4214188707187329,0.5564854090488162,0.3878790019785134,-0.3429747223854065,-0.9359533190727234,0.07974772155284882,-30.79475402832031,-35.77165985107422,19.91384887695312,2
1596229837.270873,51,0,102169.47433925,-2.922532943031335,-1.773989332728978,1.205914910505993,-0.05186985433101654,1.0437833070755,0.0899207592010498,-0.1328225433826447,0.04742872714996338,0.2785806655883789,2,0.5954968861521683,0.4258967252011779,0.565277556739066,0.3800744999725018,-0.3494970798492432,-0.9341660737991333,0.0720091238617897,-31.35953521728516,-35.70708465576172,19.6785888671875,2
1596229837.30817,52,0,102169.50443625,-2.946946282605402,-1.721800375260659,1.2031297716267,-0.6084966063499451,0.7513994574546814,0.2987231910228729,0.265288233757019,-0.1766351461410522,0.4327305555343628,2,0.5864880512536705,0.4278633739560813,0.5765041514846018,0.374976602344667,-0.3553480803966522,-0.9331685900688171,0.0540706031024456,-32.18997955322266,-35.44297790527344,18.23876953125,2
1596229837.333339,53,0,102169.53453325,-3.031334705418351,-1.640074886912197,1.192583387615112,-1.438472628593445,-0.4153383374214172,0.6462997794151306,0.5088504552841187,-0.05136352777481079,0.6693546772003174,2,0.5829599991127069,0.415858512938315,0.5862306011868171,0.3788836612738636,-0.3683739900588989,-0.9293259978294373,0.02556132711470127,-32.51319885253906,-35.52613830566406,17.52163696289062,2
1596229837.367633,54,0,102169.56463125,3.098330046493648,-1.518326308353246,1.166293565450027,-2.311984777450562,-0.8277204632759094,1.05173122882843,0.2473729848861694,-0.1189447045326233,0.8450971841812134,2,0.5830651728485544,0.3869297767529466,0.5971863822574828,0.392031490688134,-0.3930198550224304,-0.9192982316017151,-0.02064070478081703,-33.24555969238281,-35.51077270507812,15.97161865234375,2
1596229837.391242,55,0,102169.59472825,2.912906540287431,-1.370415650925373,1.119877416699911,-3.087664127349854,-0.5765760540962219,1.239220142364502,-0.1800476312637329,-0.113749623298645,0.6741523742675781,2,0.5796122952215782,0.3473888347325879,0.6134107802565032,0.4087757623475268,-0.4270725846290588,-0.9000470042228699,-0.08674117177724838,-33.73012542724609,-35.59820556640625,14.8660888671875,2
1596229837.426947,56,0,102169.62482625,2.708050028836017,-1.214799063262725,1.057861604634336,-4.104932308197021,-1.296389222145081,1.027633547782898,-0.1687467098236084,0.1088964343070984,0.4440223574638367,2,0.5703280738028962,0.2986785515319985,0.630391448945711,0.4337321796082253,-0.4599668979644775,-0.8713080883026123,-0.1710340231657028,-35.04615783691406,-35.64608001708984,11.157958984375,2
1596229837.451489,57,0,102169.65492325,2.501230043640839,-1.114050362298983,0.9616996652605994,-5.784608840942383,-5.094588279724121,2.375509023666382,0.460235059261322,-0.02012532949447632,-0.7998770475387573,2,0.5684636528564524,0.2251368650283176,0.6373673302457356,0.4689617433566018,-0.5134791731834412,-0.8201651573181152,-0.2523249387741089,-35.82427215576172,-36.44921112060547,9.418060302734375,2
1596229837.487327,58,0,102169.68502125,2.275343193087002,-1.142056350855936,0.806177793721394,-7.125954151153564,-7.614607334136963,2.885211229324341,0.3515062928199768,-0.3052047491073608,-0.04051750898361206,2,0.5897839928520311,0.09088211529576998,0.6134653921536217,0.5172575275856623,-0.629605233669281,-0.7216464877128601,-0.2877905666828156,-37.00860595703125,-34.76943206787109,8.689239501953125,2
1596229837.511725,59,0,102169.71511825,2.047406060673294,-1.251430552434385,0.6354420739719865,-7.393157482147217,-9.198840141296387,3.182145833969116,0.3247910737991333,0.3431800603866577,0.4581137299537659,2,0.6068819629301826,-0.07316769200875831,0.562410192133583,0.5568083337019827,-0.7641139626502991,-0.5935333371162415,-0.2526815533638,-37.81933212280273,-33.91433715820312,9.430877685546875,2
1596229837.549657,60,0,102169.74521625,1.838870347005079,-1.412645109984416,0.5016182199334117,-5.965908527374268,-8.859647750854492,2.548094272613525,0.159241259098053,0.826959490776062,0.7370536923408508,2,0.6144756529554473,-0.2310290057953294,0.4884071062716917,0.5748945827483032,-0.8658632040023804,-0.480845034122467,-0.1380905359983444,-37.94805908203125,-32.43601989746094,13.06790161132812,2
1596229837.571954,61,0,102169.77531325,1.663419156306649,-1.579385863236364,0.4376248429551964,-4.939055442810059,-6.65114688873291,0.870069146156311,0.06499564647674561,0.7097067832946777,0.463070273399353,2,0.6152856777696325,-0.3539964964985953,0.4041171199365255,0.5768876582644422,-0.9057273864746094,-0.4237893521785736,0.007779969833791256,-37.08823394775391,-31.90177917480469,15.726806640625,2
1596229837.609528,62,0,102169.80541025,1.520003721299697,-1.689106795472414,0.4270718494232692,-3.13392972946167,-5.60771369934082,0.6749847531318665,-0.5756398439407349,0.7383267283439636,-0.3883597850799561,2,0.6053947594443856,-0.432682004521649,0.3322526981626316,0.5795614732876399,-0.903819739818573,-0.4142074286937714,0.1074330657720566,-33.93251037597656,-33.66769409179688,17.9517822265625,2
1596229837.633484,63,0,102169.83550825,1.443367865289056,-1.816416750073033,0.4127324608033733,-1.626523733139038,-3.894477128982544,0.8527592420578003,-0.5240060091018677,0.3801939487457275,-0.158622145652771,2,0.6044308144938687,-0.4960173752192126,0.2765089373244555,0.5587242509208104,-0.8885349035263062,-0.4011138379573822,0.2227396965026855,-32.87698364257812,-34.81748962402344,19.41995239257812,2
1596229837.667951,64,0,102169.86560525,1.442656828969642,-1.876183766658849,0.4084958943655549,1.562946677207947,-0.008215289562940598,-0.7131140232086182,-0.9573686122894287,0.9144959449768066,-0.03855288028717041,2,0.6115496288275641,-0.5137791796988497,0.2595568904090187,0.5428335266639238,-0.8752569556236267,-0.3972294330596924,0.2759239971637726,-30.1861572265625,-34.82548522949219,21.99221801757812,2
1596229837.692244,65,0,102169.89570325,1.50642662382267,-1.864546739330612,0.4289742414552923,1.272540807723999,2.230248689651489,-1.516615509986877,-0.6665967106819153,-0.2091838717460632,0.4762752056121826,2,0.6291828306135668,-0.4855755465198768,0.2736430098675606,0.5417240258823318,-0.8704388737678528,-0.4159381985664368,0.2633092999458313,-29.55381774902344,-34.40358734130859,23.36968994140625,2
1596229837.726634,66,0,102169.9258005,1.53927345763658,-1.813569429856687,0.4608668856110667,0.06284398585557938,1.345051527023315,-1.024376153945923,0.2485359907150269,-0.3198128044605255,-0.04277551174163818,2,0.6346213616061493,-0.4526729705546864,0.2883419263742134,0.5560590538443277,-0.8694016933441162,-0.4447247087955475,0.2153141796588898,-29.68296813964844,-34.65494537353516,22.85260009765625,2
1596229837.752484,67,0,102169.9558985,1.532342788803853,-1.818516251580153,0.4860846921090042,-0.8034980297088623,-1.899800300598145,-0.2511636018753052,0.9982496500015259,-0.332591712474823,-0.05881595611572266,2,0.6375632878740403,-0.4493434618718564,0.2766180303816435,0.5613252090619478,-0.8571786284446716,-0.4671676754951477,0.2167929857969284,-28.96485137939453,-35.84896087646484,22.129150390625,2
1596229837.789566,68,0,102169.9859955,1.493348816822466,-1.884522343427403,0.475029576191606,-0.9729039669036865,-3.210874795913696,1.337763547897339,0.6037825345993042,-0.192608118057251,0.2236045598983765,2,0.6355101178766747,-0.4830577998461774,0.2484453243616218,0.5486865061545529,-0.8458736538887024,-0.4573647379875183,0.2744359076023102,-28.35118103027344,-36.95903015136719,22.60775756835938,2
1596229837.812758,69,0,102170.0160925,1.454939630063513,-1.942658156603254,0.454309461672461,-0.7253120541572571,-1.435736060142517,0.3719042837619781,-0.5703722238540649,-0.03814601898193359,0.3054625988006592,2,0.6298267443093672,-0.5162994979436617,0.2266766610184532,0.5342008925854499,-0.8371493816375732,-0.4388419389724731,0.3264937996864319,-27.02033996582031,-35.96932983398438,24.2864990234375,2
1596229837.849201,70,0,102170.0461905,1.44870655674591,-1.952069194375716,0.4691919298012232,0.1231054216623306,0.2878789603710175,-0.7941351532936096,-0.4853541851043701,0.1745595335960388,-0.1194854974746704,2,0.6313715957182383,-0.5170253011810662,0.2169264387552869,0.535721441289244,-0.8278854489326477,-0.4521656930446625,0.3318904936313629,-26.59677886962891,-36.13069915771484,24.23321533203125,2
1596229837.872844,71,0,102170.0762875,1.458769256272183,-1.938966342035688,0.4843480995527803,-0.02833212912082672,0.7891511917114258,-0.2575786709785461,0.1267383098602295,-0.007793664932250977,0.0154876708984375,2,0.6346351791346313,-0.506452289384639,0.2185658502054695,0.5412699401598037,-0.8256739377975464,-0.4656315445899963,0.3185114562511444,-26.23146057128906,-36.62729644775391,24.01339721679688,2
1596229837.906822,72,0,102170.1063855,1.461994798448133,-1.925639116591376,0.4893766095896804,-0.04062478244304657,0.107462465763092,-0.265100508928299,0.089835524559021,-0.02205812931060791,-0.220704197883606,2,0.6346804173265673,-0.5005115886838826,0.2219457515282891,0.5453521027415545,-0.8276393413543701,-0.4700757563114166,0.3066621720790863,-26.48847198486328,-36.64315795898438,23.71090698242188,2
1596229837.933118,73,0,102170.1364825,1.460810029091419,-1.928743109609004,0.4948471313000466,-0.01367488969117403,-0.2136327922344208,0.07532870769500732,0.2192719578742981,0.09732985496520996,-0.09656476974487305,2,0.635488036895124,-0.5003168810478802,0.2187606845790995,0.5458768793250001,-0.8242624402046204,-0.4748971164226532,0.3083240389823914,-26.25155639648438,-37.04033660888672,23.54763793945312,2
1596229837.966355,74,0,102170.1665805,1.457620371976429,-1.93143023586187,0.4927780286063888,-0.1651294976472855,-0.06560108810663223,-0.1138872802257538,-0.1227276921272278,0.1136412620544434,0.04898929595947266,2,0.6346942827469682,-0.502598404755873,0.2177481941274212,0.5451089002613635,-0.8243488073348999,-0.4730752110481262,0.3108839690685272,-25.86770629882812,-37.02097320556641,23.57351684570312,2
1596229837.993251,75,0,102170.1966775,1.454258738438826,-1.934148304835642,0.5040254506689916,-0.2916138768196106,-0.2223816066980362,-0.279573380947113,0.05166375637054443,-0.09122157096862793,-0.02737832069396973,2,0.6356952243587892,-0.5014956398554932,0.2120947581184559,0.547183206842691,-0.8184752464294434,-0.4829543232917786,0.3112125992774963,-25.58782196044922,-37.09075164794922,23.55520629882812,2
1596229838.027476,76,0,102170.2267755,1.445664437426747,-1.940303536381847,0.5057910325137783,-0.1603186428546906,-0.4419833421707153,0.2547964155673981,0.2443039417266846,-0.04693096876144409,-0.0733487606048584,2,0.6344188344215007,-0.5054510832259701,0.2071794192689989,0.5469081831132292,-0.8157477378845215,-0.4844995737075806,0.3159361183643341,-25.45524597167969,-37.31739807128906,23.44268798828125,2
1596229838.053394,77,0,102170.2568725,1.440250299229346,-1.950946714815263,0.5023012905403144,-0.06925337016582489,-0.2377347946166992,-0.007199399173259735,-0.1239734888076782,-0.04218444228172302,0.0006415843963623047,2,0.6336591660249431,-0.5109685453523884,0.2035390306628669,0.544021109117468,-0.8139041066169739,-0.481443852186203,0.3252255916595459,-25.28347778320312,-37.43927764892578,23.53411865234375,2
1596229838.085473,78,0,102170.2869695,1.443052503386974,-1.947028340607824,0.5059679632997371,0.1223511844873428,0.5266776084899902,-0.2330830842256546,-0.2245317101478577,-0.09560203552246094,-0.05715596675872803,2,0.6344729041670469,-0.5080705754914171,0.2042714799420615,0.5455102987900322,-0.8135249018669128,-0.4846543371677399,0.321383148431778,-25.00614929199219,-37.41195678710938,23.5897216796875,2
1596229838.113751,79,0,102170.3170675,1.450338831034048,-1.933091309663663,0.5129753839603178,0.14117431640625,0.5708146691322327,-0.3954933881759644,-0.1591634154319763,-0.01967012882232666,-0.06561660766601562,2,0.6358266762408598,-0.5001259209779645,0.2082658254431279,0.5497489597457008,-0.8147293329238892,-0.4907718300819397,0.308802992105484,-25.35430145263672,-37.52806091308594,23.30621337890625,2
1596229838.149621,80,0,102170.3471645,1.464100153108335,-1.919835527132092,0.5250905037061989,0.3177886009216309,0.7867909669876099,-0.6002822518348694,0.01832717657089233,0.03493553400039673,0.07758009433746338,2,0.6394801648731411,-0.4889024261857288,0.2121124870080065,0.5541187792981576,-0.8131034970283508,-0.5012913346290588,0.2959209382534027,-25.29557037353516,-37.83036041259766,23.44546508789062,2
1596229838.173753,81,0,102170.3772625,1.483410179406044,-1.897671903332242,0.535806239426552,0.5099337697029114,1.368291616439819,-0.4261482656002045,0.02707517147064209,-0.1456236839294434,0.1300426721572876,2,0.643171444793721,-0.4736816979109523,0.2209264383238767,0.5595957989118858,-0.8143277168273926,-0.5105344653129578,0.2760877311229706,-25.20289611816406,-37.84906005859375,23.13272094726562,2
1596229838.203895,82,0,102170.4073595,1.508762995606288,-1.860849040698202,0.5438695942529232,0.6873776912689209,1.94573175907135,-0.6155149936676025,-0.06639093160629272,-0.03950870037078857,0.1216379404067993,2,0.645917973235493,-0.4529437605843789,0.2372037886349269,0.5668916961039621,-0.8199685215950012,-0.5174511075019836,0.2447361499071121,-25.57052612304688,-37.82536315917969,22.1982421875,2
1596229838.234163,83,0,102170.4374575,1.546290888364045,-1.812307673452787,0.5568385938933913,1.164414286613464,2.605643033981323,-0.6612239480018616,0.1277491450309753,-0.1393755078315735,-0.01034641265869141,2,0.6498826092869285,-0.4232872440211923,0.2593297717432231,0.5755247089964988,-0.8242923617362976,-0.5285050272941589,0.2030389904975891,-26.16680908203125,-37.90523529052734,21.7232666015625,2
1596229838.272765,84,0,102170.4675545,1.599160010224723,-1.750202088629578,0.5630963800549116,1.772567629814148,3.457661628723145,-0.3785554170608521,0.2312827110290527,-0.1797329187393188,-0.0329890251159668,2,0.6528714032379883,-0.3862719193701962,0.2928302874337828,0.5820681544250887,-0.8320342302322388,-0.533807098865509,0.1508941352367401,-27.54934692382812,-37.25820159912109,20.884521484375,2
1596229838.294282,85,0,102170.4976525,1.679124460413274,-1.670977264772202,0.5650065270748349,2.650512933731079,4.84359073638916,-0.3989712297916412,0.006037473678588867,-0.0470086932182312,0.0296553373336792,2,0.6550210639228362,-0.3364258405684749,0.3414735081954846,0.5840898826697754,-0.8403505682945251,-0.5354213118553162,0.08446987718343735,-28.65544128417969,-36.92053985595703,20.55859375,2
1596229838.329249,86,0,102170.5277495,1.79979017627435,-1.563556864023316,0.5743210008067734,4.125800609588623,6.926148414611816,-0.6759026646614075,-0.6328461170196533,0.06267029047012329,0.1100932359695435,2,0.654203077251039,-0.2626392476775041,0.4090324876653162,0.5794231565862795,-0.8395391702651978,-0.5432648658752441,-0.006077918689697981,-31.80872344970703,-35.10265350341797,18.74740600585938,2
1596229838.354554,87,0,102170.5578465,1.955568597960541,-1.404577688885038,0.6129461289375123,4.66519832611084,8.840838432312012,-0.9536044597625732,-0.4667404890060425,0.237371563911438,0.5699687600135803,2,0.6394235099483989,-0.1532004106017362,0.4946177844996582,0.5683487103971728,-0.8066830039024353,-0.5752797722816467,-0.1353344172239304,-33.91194915771484,-34.2342529296875,17.17303466796875,2
1596229838.389384,88,0,102170.5879445,2.119982793947812,-1.243681804591042,0.6713356539805633,4.656614780426025,7.700233459472656,-0.6595541834831238,0.09371674060821533,0.1900544166564941,0.4513859152793884,2,0.6107040423545498,-0.03533214505882534,0.5756723938077452,0.5425801881353773,-0.7414719462394714,-0.6220323443412781,-0.2515844106674194,-37.71550369262695,-33.04783630371094,11.49679565429688,2
1596229838.414497,89,0,102170.6180415,2.276654324502916,-1.15226604520258,0.7468938755160035,4.446907520294189,6.144659042358398,-1.213454484939575,0.2191474437713623,0.7132251858711243,0.2702324986457825,2,0.5887583975304768,0.06517904001848679,0.625593693658488,0.5076883560902208,-0.6704658269882202,-0.6793627738952637,-0.2982304990291595,-38.56442642211914,-33.00547027587891,9.189849853515625,2
1596229838.449624,90,0,102170.6481395,2.418051419809628,-1.051287082712141,0.8364732779789046,4.09232759475708,6.600916862487793,-1.326417565345764,-0.09077179431915283,0.4341245293617249,0.05282557010650635,2,0.5531841745773022,0.1662950844909791,0.667150790770106,0.4703648150445211,-0.5816758275032043,-0.7422845363616943,-0.332666426897049,-39.26877593994141,-33.14923858642578,5.441436767578125,2
1596229838.474891,91,0,102170.6782365,2.499409467616297,-0.9553967240390125,0.9322344449167601,2.145225763320923,3.987033843994141,-1.841580033302307,0.02027973532676697,-0.0577080249786377,-0.2919713258743286,2,0.5156622969423172,0.2490975278182454,0.6875640953044244,0.4464285402970583,-0.486693263053894,-0.8029537796974182,-0.3440856337547302,-38.55438995361328,-33.66658782958984,3.5279541015625,2
1596229838.507331,92,0,102170.7083345,2.525563344400121,-0.9173028004489644,0.9875038434793297,0.731291651725769,-0.1400333493947983,-0.4781406223773956,0.8218747973442078,-0.1006568074226379,-0.672652006149292,2,0.5003427483884513,0.2867603961229113,0.6887833965305932,0.4393210072980961,-0.4372958242893219,-0.8346537351608276,-0.3348512053489685,-36.87009429931641,-35.74617767333984,1.82464599609375,2
1596229838.535108,93,0,102170.7384315,2.542049697484653,-0.987686452145336,0.9978485188147811,0.370893120765686,-2.88079047203064,0.07813201099634171,0.4632740318775177,0.3846249580383301,-0.1625552177429199,2,0.5220819151911776,0.2796088568610895,0.6717233155991839,0.4450135099548458,-0.4525297582149506,-0.8403065800666809,-0.2984987199306488,-36.75273132324219,-36.08973693847656,2.617034912109375,2
1596229838.572154,94,0,102170.7685295,2.554675884470877,-1.058943421349307,0.9985680671519624,0.40285724401474,-0.5700567960739136,-0.1869759261608124,-0.4053609371185303,0.367258608341217,0.5930184125900269,2,0.5439987476939433,0.2673053659111894,0.6553690639201496,0.4506711761431997,-0.4721062481403351,-0.8406964540481567,-0.2652263939380646,-36.30878448486328,-35.83657836914062,5.72821044921875,2
1596229838.595232,95,0,102170.7986265,2.56128697797679,-1.044648767553871,1.038669407747433,0.9707006216049194,1.595518946647644,-1.862781643867493,-0.7600002288818359,0.1664055585861206,0.5520904064178467,2,0.5380707457244149,0.2882333622395219,0.6501033411677953,0.4525120083841998,-0.4387450516223907,-0.8617299199104309,-0.254802793264389,-36.075439453125,-35.999755859375,6.457733154296875,2
1596229838.629941,96,0,102170.8287235,2.577813454584576,-0.9922415777229834,1.105517399221205,1.593644142150879,2.243561506271362,-1.315494894981384,0.3598545789718628,-0.1570346355438232,0.3085839748382568,2,0.517580683081188,0.3308171910304828,0.6494062461273686,0.448265331531532,-0.3756524920463562,-0.8936964273452759,-0.2453404515981674,-33.98044586181641,-37.63963317871094,6.179290771484375,2
1596229838.655352,97,0,102170.8588215,2.620333620236823,-0.9868670376336955,1.161575070490019,1.503343105316162,0.776325523853302,-1.436141133308411,0.7061763405799866,0.06910532712936401,0.2566378116607666,2,0.5071381385437046,0.3648697585259315,0.644466133671488,0.4408449296855708,-0.3319647312164307,-0.9174309372901917,-0.2193619310855865,-32.38706207275391,-38.81626129150391,6.193206787109375,2
1596229838.690112,98,0,102170.8889185,2.656824648588175,-1.007751825671676,1.210721841850755,0.09890700876712799,0.0139108682051301,-0.4813232421875,0.1743956804275513,-0.9650948643684387,0.2820690870285034,2,0.5050276741351968,0.3884751658520063,0.6331042337124481,0.4395601076013854,-0.2979539334774017,-0.9358705878257751,-0.1880681812763214,-31.53701782226562,-39.60659790039062,7.07476806640625,2
1596229838.715744,99,0,102170.9190167917,2.626357253797204,-1.011292526624219,1.220231709001768,-0.3265550434589386,-2.200644254684448,-0.3041203618049622,0.4162056148052216,-0.1207387447357178,-0.5102958679199219,2,0.5115931385082426,0.3835786310246764,0.6226507265001927,0.4510497655542254,-0.2910615801811218,-0.9391789436340332,-0.1822797954082489,-30.39387512207031,-39.90899658203125,8.0400390625,2
1596229838.747293,100,0,102170.9491137917,2.591742118944069,-1.071639394136118,1.212763340766129,-0.2221670746803284,-3.152170181274414,0.08313256502151489,0.234402596950531,0.3305239677429199,0.02851927280426025,2,0.5367986655360012,0.3577341916367924,0.6010298582997953,0.4718436468985441,-0.3076748549938202,-0.936587929725647,-0.1677468866109848,-30.12258148193359,-40.65747833251953,9.134033203125,2
1596229838.775865,101,0,102170.9792117917,2.585999508164193,-1.126257671949619,1.219835404955359,0.1353193819522858,-0.5271843075752258,-0.6454675197601318,-0.7157157063484192,-0.1579551696777344,0.2965469360351562,2,0.553633380761004,0.3457830952293932,0.582695611183055,0.4841382544995455,-0.3103858232498169,-0.9390428066253662,-0.1478482633829117,-28.68872833251953,-40.26640319824219,11.77197265625,2
1596229838.809871,102,0,102171.0093087917,2.565454620626023,-1.096274369200612,1.244064965233564,0.3196482956409454,0.7015565633773804,-0.9726322889328003,-0.44170743227005,0.1520863175392151,-0.07045555114746094,2,0.547333938390315,0.3565146797090327,0.5787874199562845,0.4881882947632806,-0.2854874134063721,-0.9470964670181274,-0.1466456800699234,-28.1341552734375,-40.64700317382812,11.96768188476562,2
1596229838.836059,103,0,102171.0394067917,2.548251062210115,-1.063589956520936,1.275924035355853,0.3124543726444244,0.3505300879478455,-0.891301691532135,0.461411327123642,-0.06802105903625488,0.1109399199485779,2,0.5396097893101942,0.3718056669010004,0.5738407971831557,0.4912111996528313,-0.2540300190448761,-0.9568392634391785,-0.1411636471748352,-27.02384948730469,-41.48221588134766,11.65960693359375,2
1596229838.869232,104,0,102171.0695037917,2.535462798898935,-1.060498496263112,1.289997633509517,-0.1325716078281403,-1.082367777824402,-0.02777189575135708,0.6262960433959961,-0.2018353939056396,0.02494651079177856,2,0.5405124223205264,0.3743899957830167,0.5672071830771162,0.4959377402808975,-0.2418168038129807,-0.9608343839645386,-0.1353569030761719,-26.23165130615234,-41.74000549316406,11.69232177734375,2
1596229838.89625,105,0,102171.0996007917,2.515628673324677,-1.083604536395057,1.286693801639367,-0.1269440650939941,-1.315131187438965,-0.3107929527759552,-0.1596137881278992,0.1627557277679443,-0.05442655086517334,2,0.5507962616097997,0.3619583749260554,0.5569549915504924,0.5053815624620384,-0.2476832717657089,-0.9599136114120483,-0.1312192231416702,-25.67327117919922,-41.92295837402344,12.712158203125,2
1596229838.929425,106,0,102171.1296987917,2.489424474898548,-1.072502348287579,1.299400135213701,0.1302859038114548,0.496976226568222,-0.3532990515232086,-0.1222693622112274,-0.08638393878936768,0.04001390933990479,2,0.5519720593035137,0.3623068896419201,0.5494145014100675,0.5120587366234,-0.235478088259697,-0.9633975625038147,-0.1281211227178574,-25.15951538085938,-42.28433227539062,12.8709716796875,2
1596229838.956467,107,0,102171.1597957917,2.504723442053626,-1.062139682525677,1.308741529080807,0.2475612759590149,0.7552371621131897,-0.244931697845459,-0.05509588122367859,0.04643648862838745,-0.0346909761428833,2,0.5459491982030923,0.3726346225145496,0.5532436485914264,0.5069557894331657,-0.2262672930955887,-0.9658597111701965,-0.1261658221483231,-24.54588317871094,-42.24508666992188,12.80850219726562,2
1596229838.990736,108,0,102171.1898937917,2.499880769180379,-1.04791484738677,1.320083930223744,0.07481779158115387,0.04570232704281807,-0.2882242798805237,0.3079567551612854,0.005466997623443604,0.09128612279891968,2,0.5424910504892243,0.3791530673911208,0.5523350575822445,0.5068257467212157,-0.2149445712566376,-0.968735933303833,-0.1238928213715553,-24.72892761230469,-42.40620422363281,12.73345947265625,2
1596229839.016574,109,0,102171.2199907917,2.506823330137502,-1.060258899232251,1.320513563438743,0.1203896999359131,-0.5078583359718323,0.2030515223741531,0.3151490986347198,-0.05268269777297974,-0.04733037948608398,2,0.5445635806593926,0.378070301114098,0.5506055753880672,0.5072935598905033,-0.2160942256450653,-0.9688424468040466,-0.1210267096757889,-24.46513366699219,-42.62567901611328,12.85049438476562,2
1596229839.050278,110,0,102171.2500887917,2.516556719946677,-1.087702425939687,1.316621508902203,-0.08789089322090149,-0.6266781091690063,0.1457890719175339,-0.1551598012447357,-0.001024246215820312,0.03354799747467041,2,0.5504371501729697,0.3723140614409006,0.5467845314174046,0.5093405988160206,-0.222671702504158,-0.9678711295127869,-0.1168023645877838,-24.59506225585938,-42.5556640625,13.18527221679688,2
1596229839.076748,111,0,102171.2801857917,2.512869887142608,-1.091745668802759,1.315001722557259,0.06383008509874344,0.1824483275413513,-0.1362167149782181,-0.1776575148105621,0.0361289381980896,0.02009141445159912,2,0.5523000618645119,0.3696660423734208,0.5452344870891773,0.5109117705229147,-0.2245326191186905,-0.9674625396728516,-0.1166233196854591,-24.46767425537109,-42.61707305908203,13.44256591796875,2
1596229839.110778,112,0,102171.3102837917,2.517698577855745,-1.086341851243502,1.318305946700518,0.07214260846376419,0.2354568690061569,0.06385230273008347,0.1583861112594604,-0.03788858652114868,-0.02615010738372803,2,0.5497736086451754,0.3735991276132665,0.546923254223032,0.5089669436302071,-0.2210687249898911,-0.968293309211731,-0.1163453385233879,-24.38800811767578,-42.37378692626953,13.27859497070312,2
1596229839.137032,113,0,102171.3403807917,2.526861997833434,-1.096378021873578,1.315079347442441,-0.03948158770799637,-0.2652109265327454,0.1754351258277893,0.1608478128910065,0.03146439790725708,-0.005962133407592773,2,0.5509661462097368,0.3723741123901985,0.5474966707182263,0.5079577234428525,-0.225003644824028,-0.9674822092056274,-0.1155476495623589,-24.27147674560547,-42.32931518554688,13.26345825195312,2
1596229839.169776,114,0,102171.3704777917,2.534025095510937,-1.110801747068599,1.309562402124993,0.02140623331069946,-0.08013010025024414,0.1805329918861389,-0.07043659687042236,-0.01078176498413086,-0.04168415069580078,2,0.5538673793557833,0.3686486161810032,0.5470435782323266,0.5080081705878448,-0.2314261645078659,-0.9660720229148865,-0.1146582514047623,-24.67237091064453,-42.24620819091797,13.58169555664062,2
1596229839.197146,115,0,102171.4005757917,2.553278779176551,-1.123472077258179,1.307394304919855,0.1830224841833115,0.3912295401096344,0.09110831469297409,-0.07883456349372864,0.07602030038833618,-0.03598034381866455,2,0.5539034408295931,0.3699725148171599,0.5490786310468427,0.5048007907545345,-0.2347482442855835,-0.9655097723007202,-0.1126226335763931,-24.80677795410156,-42.19033050537109,13.63711547851562,2
1596229839.228349,116,0,102171.4306727917,2.573848481050387,-1.135672932213024,1.307727248340417,0.1642986088991165,0.07261275500059128,0.04919883608818054,0.04025620222091675,-0.05365234613418579,-0.05093073844909668,2,0.5534188872700158,0.3727200252459419,0.5507734421724071,0.5014536528183613,-0.2358132153749466,-0.9655964374542236,-0.1096146330237389,-25.09645080566406,-42.04673767089844,13.629150390625,2
1596229839.257274,117,0,102171.4607707917,2.591834154906265,-1.153232418900699,1.306187057572805,0.138373389840126,-0.08793154358863831,0.1746699959039688,0.06123250722885132,0.05841290950775146,-0.004498779773712158,2,0.5550050594175878,0.3727454820200578,0.5508785077860892,0.4995628453943166,-0.2390611320734024,-0.9651947617530823,-0.1060603782534599,-25.25750732421875,-41.99600982666016,13.85675048828125,2
1596229839.288773,118,0,102171.4908677917,2.606570070896878,-1.169373225374497,1.305030761588419,0.02442312799394131,0.0860237330198288,-0.02515416964888573,-0.2292826473712921,-0.03100532293319702,0.09052920341491699,2,0.5567867207796475,0.3723931179882353,0.5504184906311534,0.498348445555875,-0.2417683452367783,-0.9648917317390442,-0.1026238277554512,-25.32920837402344,-41.82220458984375,14.09713745117188,2
1596229839.317602,119,0,102171.5209657917,2.611025159405284,-1.163543616394493,1.307606321773339,0.125179797410965,0.4819595813751221,-0.09077327698469162,-0.1173228919506073,0.06666141748428345,-0.0139000415802002,2,0.5541549003381758,0.3760171839082029,0.552367113214687,0.4964008448696915,-0.2388833910226822,-0.9655649662017822,-0.1030468493700027,-25.39691925048828,-41.86444091796875,14.11062622070312,2
1596229839.349008,120,0,102171.5510627917,2.614935814924446,-1.154568905000954,1.310563872517535,0.007870648056268692,0.3248009979724884,-0.01548204757273197,0.120263010263443,-0.01143580675125122,0.1107398271560669,2,0.5507115074097307,0.3803958295670063,0.55491969756689,0.4940444387235146,-0.2353364378213882,-0.9663301706314087,-0.1040316969156265,-25.64304351806641,-41.90480804443359,13.64645385742188,2
1596229839.377817,121,0,102171.5811597917,2.616194819066763,-1.152561953306837,1.309162858444227,-0.002896476536989212,-0.1452296227216721,0.08750467747449875,0.2313965260982513,-0.05568641424179077,-0.04046154022216797,2,0.5500180568795712,0.3807274383167285,0.5562067490760485,0.4931132785744605,-0.2363640069961548,-0.9659687280654907,-0.1050535067915916,-26.059326171875,-42.30919647216797,13.3919677734375,2
1596229839.410406,122,0,102171.6112577917,2.623628922233145,-1.167262840975591,1.304096754217792,0.009244599379599094,-0.2983740866184235,0.2617772221565247,0.1440789699554443,0.04506969451904297,-0.03672295808792114,2,0.5530763236143341,0.3773098229177139,0.5555140476003477,0.4931002614678862,-0.2423801869153976,-0.9646459817886353,-0.1034877523779869,-25.66611480712891,-41.82117462158203,13.58953857421875,2
1596229839.438004,123,0,102171.6413547917,2.633655893496714,-1.185264506618732,1.297482823121842,-0.06524800509214401,-0.2113965153694153,0.1599098592996597,-0.1273993849754333,-0.0159224271774292,0.06908679008483887,2,0.5567116839155861,0.3732553003207192,0.5549727593655952,0.4927045358852939,-0.2501104772090912,-0.9628818035125732,-0.1015051603317261,-25.73147583007812,-41.64046478271484,13.7484130859375,2
1596229839.472269,124,0,102171.6714527917,2.635868955447316,-1.185832951458512,1.294177687137566,0.06747628748416901,0.2804177701473236,0.1278220564126968,-0.007180988788604736,0.04914683103561401,-0.03374361991882324,2,0.5567223970445718,0.3725337428291184,0.5563445909406608,0.4916904167856077,-0.2531164586544037,-0.961984395980835,-0.1025575697422028,-25.89454650878906,-41.595947265625,13.84518432617188,2
1596229839.498175,125,0,102171.7015497917,2.648632263739285,-1.192099104904916,1.290554515837453,0.01771774888038635,0.07957393676042557,0.1359444558620453,-0.02107691764831543,-0.007435023784637451,-0.01212060451507568,2,0.5563856561670655,0.3732375709670457,0.558805085716289,0.4887387666163255,-0.2569909393787384,-0.9609885811805725,-0.1022574380040169,-25.99111938476562,-41.44119262695312,13.612060546875,2
1596229839.529725,126,0,102171.7316477917,2.652947516878623,-1.195748671868978,1.287255728088648,0.007942819967865944,0.02311064675450325,0.1169785261154175,0.01036331057548523,0.02499032020568848,0.03728389739990234,2,0.5568773127553378,0.3723545280912975,0.5598177336569532,0.4876923548365822,-0.2603106796741486,-0.9600709676742554,-0.10247952491045,-26.54347991943359,-41.30877685546875,13.73529052734375,2
1596229839.558379,127,0,102171.7617447917,2.659524301507215,-1.197467506781986,1.284366196302429,0.05440163239836693,0.3095252215862274,0.08188807219266891,-0.08979299664497375,0.02416706085205078,-0.01809877157211304,2,0.5563781922359313,0.3727219370291829,0.5617911139004392,0.4857081412875667,-0.2630684971809387,-0.9592585563659668,-0.103043332695961,-26.83367919921875,-41.13004302978516,13.90283203125,2
1596229839.588659,128,0,102171.7918427917,2.672037857593512,-1.197372957554704,1.288303509570844,0.1651919633150101,0.2496611475944519,-0.2436585426330566,-0.04350310564041138,0.04181212186813354,0.0218195915222168,2,0.5536641843563614,0.3776390164317461,0.563690036238542,0.4828024479732109,-0.2595398724079132,-0.9603635668754578,-0.101689487695694,-26.77109527587891,-40.90428161621094,13.76614379882812,2
1596229839.618565,129,0,102171.8219397917,2.675464679925776,-1.199456115679032,1.287506717946882,0.04953084141016006,0.08513396978378296,0.1435690224170685,0.08847582340240479,-0.05559653043746948,0.05295538902282715,2,0.5536746160609578,0.3777979917348687,0.5641736939405213,0.4821006285264531,-0.2604640126228333,-0.960141122341156,-0.1014261916279793,-26.84931945800781,-40.96414947509766,13.712890625,2
1596229839.649432,130,0,102171.8520377917,2.67225151940537,-1.200052331856049,1.284438263907855,-0.1447643041610718,-0.3201203644275665,0.09859132021665573,0.09772738814353943,-0.008786499500274658,0.05645787715911865,2,0.5547183576938336,0.3756575685713236,0.5641328690337096,0.4826209255697488,-0.263269305229187,-0.95927894115448,-0.1023378670215607,-26.89591979980469,-40.93140411376953,13.77249145507812,2
1596229839.67876,131,0,102171.8821347917,2.669490594487228,-1.20601927332275,1.277166475848091,-0.08577565103769302,-0.2589038610458374,0.2459550052881241,0.03433573246002197,0.0003670454025268555,0.01359069347381592,2,0.5575513644183979,0.3708247679362259,0.5639334096867278,0.4833264555146422,-0.2703848481178284,-0.9571995735168457,-0.1032509356737137,-27.22498321533203,-41.70454406738281,13.6112060546875,2
1596229839.70996,132,0,102171.912232125,2.666283934077455,-1.20778517534342,1.271950403556761,-0.06658873707056046,-0.06219421327114105,0.05307294055819511,-0.08033710718154907,0.04487514495849609,-0.0007538795471191406,2,0.559092462970011,0.3676183856099204,0.5641861885014869,0.4837003805919793,-0.275230199098587,-0.9556769132614136,-0.1045446842908859,-27.17456817626953,-41.46762084960938,13.66305541992188,2
1596229839.738991,133,0,102171.942330125,2.668050411483979,-1.210674826385516,1.271384910117111,0.03780193999409676,-0.0799456313252449,0.02649705111980438,0.05657380819320679,-0.001100122928619385,-0.06934559345245361,2,0.55963173298258,0.3672092276838969,0.563969967932094,0.4836397556428034,-0.2760370075702667,-0.9555102586746216,-0.103939414024353,-27.30787658691406,-40.79514312744141,13.69564819335938,2
1596229839.769135,134,0,102171.972427125,2.673097522534924,-1.220630335202655,1.268479165167856,-0.03570449352264404,-0.21165831387043,0.1871169805526733,0.03797250986099243,-0.00485682487487793,0.004146754741668701,2,0.5617676442403091,0.3651683864426328,0.5632431916567554,0.4835557437031319,-0.2796650528907776,-0.9546491503715515,-0.1021383255720139,-27.40495300292969,-40.74192810058594,13.9869384765625,2
1596229839.799173,135,0,102172.002525125,2.676279338209146,-1.221399899316058,1.263941331312863,0.07101935893297195,-0.1074279621243477,0.09874460846185684,0.04322689771652222,0.03358948230743408,0.05747818946838379,2,0.5618065028179046,0.3642402251715734,0.5651077900821114,0.4820327721187551,-0.2838110029697418,-0.9532882571220398,-0.1034050211310387,-27.28956604003906,-40.85025787353516,13.76483154296875,2
1596229839.82967,136,0,102172.032622125,2.682971076298679,-1.230620945903129,1.262494657749452,-0.006541723385453224,-0.07878533005714417,0.07052543759346008,-0.006366580724716187,-0.009975790977478027,0.03395605087280273,2,0.5633232649855606,0.3633800646637759,0.5645430509221874,0.4815733165713785,-0.2860521972179413,-0.9528502821922302,-0.1012436524033546,-27.39715576171875,-40.58406829833984,13.93624877929688,2
1596229839.859213,137,0,102172.062720125,2.681358304392914,-1.234234250432565,1.258082738018869,-0.106258325278759,-0.2882981598377228,0.1869217604398727,0.07667946815490723,-0.008579730987548828,0.01878011226654053,2,0.5650352779947858,0.3604674961913842,0.5644026108250716,0.4819209438780679,-0.2903811037540436,-0.95150226354599,-0.1015966385602951,-27.43391418457031,-40.30886077880859,13.85220336914062,2
1596229839.890456,138,0,102172.092817125,2.67836343035379,-1.24071161430294,1.252358838095215,-0.06221086904406548,-0.2695909738540649,0.1224623471498489,-0.03342491388320923,0.01546859741210938,-0.02302789688110352,2,0.5679152158083824,0.3559966324387148,0.5634860042617795,0.4829308299735131,-0.2961810529232025,-0.9497257471084595,-0.1014774143695831,-27.67245483398438,-40.54620361328125,13.99298095703125,2
1596229839.919582,139,0,102172.122914125,2.67946399331892,-1.245756485252919,1.249221423616844,0.03799998760223389,0.03875024244189262,0.08189500123262405,-0.07289659976959229,0.04359740018844604,-0.01808643341064453,2,0.5694243920887612,0.3539623689098718,0.5632138477320021,0.4829665021004121,-0.2995114624500275,-0.9487388134002686,-0.1009330078959465,-27.64317321777344,-40.46124267578125,14.122314453125,2
1596229839.951177,140,0,102172.153012125,2.683477057990673,-1.246610266598089,1.249020116291453,0.02235052362084389,0.1296584606170654,-0.003425492439419031,-0.07178699970245361,0.03803932666778564,0.0231286883354187,2,0.5689722087408136,0.3548261705968751,0.5639962277781388,0.4819514316098857,-0.2997784018516541,-0.9486751556396484,-0.100738026201725,-27.79344177246094,-40.44021606445312,14.22589111328125,2
1596229839.979774,141,0,102172.183109125,2.68531929251281,-1.242651246520761,1.248641895244273,0.005132054910063744,0.2276337444782257,0.01999626308679581,-0.01704013347625732,0.00506591796875,0.01253056526184082,2,0.5675611841738875,0.3561664134915017,0.5656720013279529,0.4806607488969258,-0.2997165024280548,-0.9485555291175842,-0.1020395755767822,-27.81497192382812,-40.18877410888672,14.09622192382812,2
1596229840.011205,142,0,102172.213207125,2.686195400711834,-1.238258130373973,1.248460519449415,0.008040227927267551,0.08913412690162659,0.00502620916813612,-0.00967252254486084,0.01767200231552124,0.01572191715240479,2,0.5661771838645404,0.3574040128297106,0.5671793432741881,0.4795969629940415,-0.299428254365921,-0.9484980702400208,-0.1034115329384804,-27.78371429443359,-40.58670043945312,13.71871948242188,2
1596229840.039897,143,0,102172.243304125,2.685794640725054,-1.237033339550588,1.247469390887229,-0.04589857161045074,0.04372677952051163,0.02478057891130447,0.03757685422897339,0.003513932228088379,0.02281379699707031,2,0.5659909229623549,0.3572272061235116,0.5677121681092901,0.479317899386875,-0.3001890778541565,-0.9481835961341858,-0.1040859967470169,-28.29479217529297,-40.58436584472656,13.80917358398438,2
1596229840.072619,144,0,102172.273402125,2.684920654291306,-1.234074687336997,1.245679167735729,-0.009742598049342632,0.029892947524786,0.05326303094625473,0.04166394472122192,0.005743265151977539,-0.02675867080688477,2,0.5654671221203471,0.3570429828745337,0.5688500397024793,0.4787241015858363,-0.3014818131923676,-0.9476132988929749,-0.1055344864726067,-28.10335540771484,-40.30247497558594,13.6534423828125,2
1596229840.10013,145,0,102172.303499125,2.685298699745282,-1.237128388824545,1.243960666041024,-0.02822420373558998,-0.1819881647825241,0.05738060176372528,0.0158989429473877,0.002911806106567383,-0.01781326532363892,2,0.5664219610418382,0.3557989387622498,0.5685656928815949,0.4788592997228416,-0.3033409416675568,-0.9470629692077637,-0.1051465570926666,-28.02912139892578,-40.18337249755859,13.63693237304688,2
1596229840.13014,146,0,102172.333597125,2.686458608521638,-1.244029458337891,1.24249487520022,0.01661590300500393,-0.1503133326768875,0.03014850243926048,0.04215946793556213,0.0161360502243042,-0.004669129848480225,2,0.5683079886571858,0.3539462291355109,0.5673024762898002,0.4794954916077205,-0.3053738176822662,-0.9465913772583008,-0.1034961938858032,-28.14630889892578,-40.37458801269531,13.823974609375,2
1596229840.160264,147,0,102172.363694125,2.691205631810201,-1.252831470408716,1.242705174720597,0.02911198884248734,-0.141063779592514,0.02919982932507992,-0.01798874139785767,0.0132291316986084,-0.01833963394165039,2,0.5699429877355573,0.3532619403063499,0.5658763454346734,0.4797444908636395,-0.3060835599899292,-0.9466591477394104,-0.100741982460022,-28.30469512939453,-40.30433654785156,14.0277099609375,2
1596229840.190364,148,0,102172.393792125,2.692926126964458,-1.257382925187543,1.241024989240178,-0.01630406454205513,-0.02228976041078568,0.09185352176427841,0.003155708312988281,-0.01640421152114868,0.01887613534927368,2,0.5710834182928823,0.3520577411887565,0.5654659895203318,0.4797574572600805,-0.3080518543720245,-0.9461163878440857,-0.09983815252780914,-28.17006683349609,-39.99778747558594,14.18252563476562,2
