loggingTime,loggingSample,identifierForVendor,motionTimestamp_sinceReboot,motionYaw,motionRoll,motionPitch,motionRotationRateX,motionRotationRateY,motionRotationRateZ,motionUserAccelerationX,motionUserAccelerationY,motionUserAccelerationZ,motionAttitudeReferenceFrame,motionQuaternionX,motionQuaternionY,motionQuaternionZ,motionQuaternionW,motionGravityX,motionGravityY,motionGravityZ,motionMagneticFieldX,motionMagneticFieldY,motionMagneticFieldZ,motionMagneticFieldCalibrationAccuracy
1596229852.803687,1,0,102185.004567375,2.685225961341496,-1.214156145839037,1.206575131174822,0.03997242823243141,-0.3794609606266022,-0.0589170977473259,-0.03880912065505981,0.06939542293548584,-0.1065952777862549,2,0.5629988273842991,0.3476333143885875,0.5855894766294562,0.468260877830489,-0.3338062167167664,-0.9344014525413513,-0.1243667975068092,-29.77794647216797,-39.43093109130859,12.520751953125,2
1596229852.842939,2,0,102185.034664375,2.684194984840321,-1.221718889525759,1.208252496281677,-0.01453871838748455,-0.1607927680015564,-0.02290005050599575,0.004083395004272461,-0.01270318031311035,0.04339110851287842,2,0.5652495759267757,0.3461814422506524,0.5827448294727933,0.4701699940599551,-0.3332642912864685,-0.9349976778030396,-0.1213026493787766,-29.57831573486328,-39.55368041992188,12.86468505859375,2
1596229852.861472,3,0,102185.064761375,2.68231757932558,-1.223861967579453,1.208665314278174,-0.02688416838645935,-0.07375290989875793,-0.04199696704745293,-0.04247015714645386,0.02048039436340332,0.0207136869430542,2,0.5661639927002224,0.3452969640446751,0.5815807672596541,0.4711601750624535,-0.3331598341464996,-0.9351440072059631,-0.1204566806554794,-29.63041687011719,-39.37112426757812,12.96270751953125,2
1596229852.891721,4,0,102185.094858375,2.67889700829666,-1.219790927759566,1.208409947874671,-0.02950323931872845,0.09462174028158188,0.01340167876332998,-0.001482576131820679,0.00184929370880127,0.0258326530456543,2,0.5655910575832079,0.3451950815346356,0.5819984413399285,0.4714072949224762,-0.3328912556171417,-0.9350535273551941,-0.1218942254781723,-29.58084869384766,-39.57929229736328,12.90582275390625,2
1596229852.921613,5,0,102185.124955375,2.676911487831533,-1.215940472032499,1.208414616493131,-0.02134088426828384,0.036894291639328,-0.01097376178950071,-0.02029058337211609,0.01785761117935181,0.001753568649291992,2,0.564812474917358,0.3455431687641748,0.5826173058327566,0.4713212954913456,-0.3324153423309326,-0.935055136680603,-0.1231735721230507,-29.60441589355469,-39.64570617675781,12.60537719726562,2
1596229852.953544,6,0,102185.155053375,2.676052280151142,-1.213521752292881,1.208445806269682,-0.002375354990363121,0.06801169365644455,-0.01403938140720129,-0.01293092966079712,0.006791234016418457,-0.00603330135345459,2,0.5642536295055181,0.3458820143041352,0.5830886700991159,0.4711590816332717,-0.3320888876914978,-0.9350662231445312,-0.1239669471979141,-29.78205108642578,-39.28146362304688,12.6251220703125,2
1596229852.983957,7,0,102185.185150375,2.674773425719482,-1.211229580095375,1.20887171824948,-0.02807708084583282,-0.005418142303824425,-0.02179459109902382,0.01461619138717651,0.01187288761138916,-0.01352202892303467,2,0.5637726877200921,0.346217385636899,0.5833141025995761,0.4712095363252589,-0.3314312398433685,-0.9352170825004578,-0.1245877593755722,-29.38957977294922,-39.34488677978516,12.78173828125,2
1596229853.030267,8,0,102185.215247375,2.672501885981577,-1.209810936331511,1.208988955166851,-0.02310445532202721,-0.02819938212633133,-0.004463216755539179,0.02235880494117737,0.01575994491577148,0.005958199501037598,2,0.5637428208393636,0.3459544550628575,0.5831455520380751,0.471646805920074,-0.3311516046524048,-0.9352586269378662,-0.1250190883874893,-29.43489074707031,-39.47976684570312,12.58035278320312,2
1596229853.041907,9,0,102185.245344375,2.670407291878838,-1.208359473828136,1.209269993570744,0.02192623540759087,-0.02632322162389755,-0.03886705636978149,-0.009186863899230957,0.005881249904632568,-0.007000386714935303,2,0.5636599109645388,0.3458095301592459,0.5829814828706689,0.4720549839776128,-0.3307243585586548,-0.9353580474853516,-0.1254065483808517,-29.62554931640625,-39.47737121582031,12.71087646484375,2
1596229853.086986,10,0,102185.275441375,2.674396911415162,-1.21283684167698,1.211610559001376,0.0877886638045311,-0.008350679650902748,-0.07154004275798798,0.02123641967773438,0.02731651067733765,0.02146708965301514,2,0.5640886590050377,0.3467353434885371,0.5820010501424957,0.4720735560528098,-0.3292312026023865,-0.9361833333969116,-0.1231571733951569,-29.30808258056641,-39.40798187255859,12.6689453125,2
1596229853.102116,11,0,102185.305538375,2.680652248936605,-1.217559665306609,1.214933707091479,0.07285889983177185,0.1062903329730034,-0.08165936917066574,0.02664399147033691,0.02216267585754395,0.01321375370025635,2,0.5641061075352134,0.3486005263771355,0.5812086159795881,0.4716550979173652,-0.326888233423233,-0.9373462796211243,-0.1205239444971085,-29.30259704589844,-39.66104888916016,12.97103881835938,2
1596229853.146633,12,0,102185.335635375,2.68066727304279,-1.215804205374423,1.217303309478811,0.07998076826334,-0.1238517463207245,-0.05871205776929855,-0.001820832490921021,-0.01119798421859741,-0.1058234572410583,2,0.5633991072895358,0.3498840853321805,0.5810391525980595,0.4717584078595328,-0.3245923519134521,-0.9381692409515381,-0.1203251481056213,-29.41676330566406,-39.67917633056641,12.81439208984375,2
1596229853.16246,13,0,102185.365732375,2.6807882386583,-1.222639710779584,1.222387503101611,-0.03534666448831558,-0.394389271736145,-0.05106629803776741,0.08521610498428345,0.0219610333442688,-0.016387939453125,2,0.5649366259845111,0.3501560776907652,0.5777045899614448,0.4738085327800611,-0.3209190964698792,-0.9399171471595764,-0.1164746582508087,-29.18053436279297,-39.73124694824219,13.01605224609375,2
1596229853.206872,14,0,102185.395830375,2.686948636217126,-1.235596585480263,1.222688234252517,0.08356714993715286,-0.1597865521907806,-0.03730494901537895,-0.07143485546112061,0.03299009799957275,-0.0772087574005127,2,0.5675695152794532,0.3489381611595263,0.575411827037234,0.4743502408585014,-0.3221346139907837,-0.9400197863578796,-0.1122140064835548,-29.17316436767578,-39.96060180664062,13.08822631835938,2
1596229853.222414,15,0,102185.425927375,2.686783762234665,-1.239438320558121,1.22628199868092,0.04127223789691925,-0.05836211144924164,-0.1225137561559677,-0.136480450630188,-0.002943873405456543,0.04034030437469482,2,0.5683879784486223,0.349280947981597,0.5732697579053293,0.4757095555788615,-0.3193667232990265,-0.941239595413208,-0.109875850379467,-29.03913116455078,-40.00823211669922,13.28973388671875,2
1596229853.254026,16,0,102185.456024375,2.682281529172076,-1.235349509232082,1.231286946099547,-0.009325722232460976,0.01680505275726318,-0.2447027266025543,-0.1166246831417084,0.03308975696563721,0.01137226819992065,2,0.5675677825060388,0.3507885280637638,0.571944829195053,0.4771719030081526,-0.3144620656967163,-0.9429181814193726,-0.109628438949585,-28.73673248291016,-39.884033203125,13.47817993164062,2
1596229853.283692,17,0,102185.486121375,2.67383420710589,-1.226212941112906,1.238173861102407,-0.01387599855661392,0.09432647377252579,-0.1778454035520554,0.06453108787536621,0.01537168025970459,0.03298890590667725,2,0.5658512252511776,0.3530750072243948,0.570557939492212,0.4791805498004172,-0.307328462600708,-0.9451892971992493,-0.1103008612990379,-28.51446533203125,-40.22721099853516,13.50787353515625,2
1596229853.327573,18,0,102185.516218375,2.673241235874836,-1.224186857428152,1.241451627018239,0.06590757519006729,-0.01088841818273067,-0.1322760730981827,0.0234619677066803,0.02136433124542236,-0.08324623107910156,2,0.5650989241886342,0.3545814996755952,0.5700531839766895,0.4795566200180584,-0.3041890561580658,-0.9462544918060303,-0.1098703294992447,-28.26954650878906,-40.33272552490234,13.28839111328125,2
1596229853.343033,19,0,102185.546315375,2.679863212009775,-1.228949060371632,1.246456829828786,0.1840938478708267,0.1114821881055832,-0.09798591583967209,0.02426895499229431,0.00979381799697876,-0.09822767972946167,2,0.5648432705735821,0.3571224262060391,0.5688651723828873,0.479382893654116,-0.3002425730228424,-0.9478614330291748,-0.1068313047289848,-28.07982635498047,-40.38923645019531,13.5989990234375,2
1596229853.386087,20,0,102185.576412375,2.6957796133013,-1.241333135945628,1.250068822187562,0.2474647164344788,0.02912143245339394,-0.03208525851368904,0.04941648244857788,0.01554685831069946,0.02194929122924805,2,0.5651834425173261,0.3599573978503706,0.5681457353118375,0.4777119751708614,-0.2983012199401855,-0.9490063190460205,-0.1019966974854469,-28.02825164794922,-40.19561767578125,13.43731689453125,2
1596229853.403059,21,0,102185.606510375,2.720846147801514,-1.264248978666873,1.252386347167326,0.2125048637390137,-0.04051651060581207,0.03238643333315849,0.08758914470672607,-0.01170015335083008,0.09040284156799316,2,0.5669347956219744,0.3624218488612133,0.5669756835230401,0.4751566127154166,-0.2984622120857239,-0.9497343897819519,-0.09447067975997925,-28.09348297119141,-40.28197479248047,14.13916015625,2
1596229853.449805,22,0,102185.636607375,2.73241198086015,-1.278956696752438,1.251459617102096,0.08863088488578796,-0.2795209586620331,0.1377797573804855,0.1265161633491516,-0.01297116279602051,0.0601845383644104,2,0.569101172141376,0.3618864133544271,0.5658038397443758,0.4743712016280654,-0.3006622791290283,-0.9494438767433167,-0.09032415598630905,-27.96002197265625,-40.27754211425781,14.00442504882812,2
1596229853.463259,23,0,102185.666704375,2.738170159627606,-1.297001165455739,1.247395797713686,-0.1284500807523727,-0.4914782345294952,0.183987557888031,0.09171885251998901,-0.009862244129180908,0.1300387382507324,2,0.5735909006831497,0.3578127811373329,0.5631464150648264,0.475215234891748,-0.3059551417827606,-0.9481602311134338,-0.08592698723077774,-28.12830352783203,-39.79438781738281,14.82449340820312,2
1596229853.50769,24,0,102185.696801375,2.72860546415788,-1.303662804012124,1.23990369671343,-0.1761379539966583,-0.5006145834922791,0.1900370270013809,-0.01172006130218506,-0.0137820839881897,0.09561312198638916,2,0.5779598472854531,0.3508312994011195,0.5610244609022037,0.4776307882623801,-0.3133635520935059,-0.945752739906311,-0.08575963228940964,-27.99254608154297,-39.78122711181641,14.90936279296875,2
1596229853.523457,25,0,102185.726898375,2.70884773487701,-1.297554158502072,1.233293206762164,-0.3167179524898529,-0.3584927320480347,0.1212173029780388,0.03007692098617554,0.01070815324783325,0.01663297414779663,2,0.580365500083329,0.3442340868063488,0.5598925954870689,0.4808316228571725,-0.3188474178314209,-0.9435843825340271,-0.08935756236314774,-28.16159820556641,-39.83528900146484,15.21487426757812,2
1596229853.553766,26,0,102185.756995375,2.692841114552297,-1.296882732471163,1.22632627338556,-0.2068839073181152,-0.5650938153266907,0.2420210242271423,0.04968184232711792,0.01152133941650391,-0.02633357048034668,2,0.5835938370890155,0.3372601360938291,0.5581660250336805,0.4838641291280757,-0.3251083493232727,-0.9412545561790466,-0.09134766459465027,-28.29562377929688,-39.87178802490234,14.8968505859375,2
1596229853.585523,27,0,102185.787092375,2.676014342370903,-1.298397936401259,1.218376148498652,-0.2522580027580261,-0.5661634206771851,0.1216919347643852,-0.09767019748687744,0.04905349016189575,-0.001708865165710449,2,0.5875738022894479,0.329126653473882,0.5558529813545889,0.4872988068615268,-0.3324432373046875,-0.9385401010513306,-0.09286534786224365,-28.25387573242188,-39.71234130859375,15.32376098632812,2
1596229853.628448,28,0,102185.817189375,2.657563745557736,-1.292142185192342,1.214969454252256,-0.2163104712963104,-0.1440252810716629,0.01294910348951817,-0.1385634243488312,0.01147955656051636,0.008367478847503662,2,0.5891591855415658,0.3240067834445364,0.5541348149353419,0.4907603001087122,-0.334927886724472,-0.9373587369918823,-0.09582211822271347,-27.9810791015625,-39.81193542480469,15.22149658203125,2
1596229853.643895,29,0,102185.847287375,2.646157556702792,-1.280140164520776,1.213222160208391,-0.08221042156219482,0.1591731458902359,0.04081829637289047,0.0249524712562561,0.02929413318634033,-0.05461084842681885,2,0.5878257509731744,0.3229688390032332,0.5553559492307261,0.4916621077384746,-0.3353219628334045,-0.9367486238479614,-0.1003040298819542,-27.95626068115234,-39.85429382324219,15.16534423828125,2
1596229853.686911,30,0,102185.877384375,2.63918986386907,-1.26957534975645,1.211613400351765,-0.1029452383518219,0.1028216108679771,0.00217831926420331,-0.0463377833366394,0.009236752986907959,-0.03453660011291504,2,0.5861455409428047,0.3229387751818472,0.5571978096606726,0.4916038326431803,-0.3356821537017822,-0.9361843466758728,-0.1042879074811935,-27.97254943847656,-39.88176727294922,14.73110961914062,2
1596229853.704348,31,0,102185.907481375,2.633736849559374,-1.261090978059463,1.209422029266052,-0.04060735180974007,0.114186979830265,0.1374842077493668,0.02628135681152344,0.002670586109161377,-0.1052088141441345,2,0.5848334824036467,0.3226316132321331,0.5589616852736328,0.4913658393319749,-0.3367387056350708,-0.935411810874939,-0.1077572777867317,-28.01920318603516,-39.80129241943359,14.689453125,2
1596229853.752141,32,0,102185.93757875,2.642883122885259,-1.26673057979282,1.203464949832784,0.103264294564724,0.05812554806470871,0.3047004342079163,0.1597302854061127,-0.005736768245697021,-0.1019061803817749,2,0.585413334799196,0.3217603847089452,0.5612338400716134,0.4886491076751823,-0.3426516950130463,-0.9332890510559082,-0.1075229644775391,-28.3492431640625,-39.64839935302734,14.5592041015625,2
1596229853.764272,33,0,102185.96767575,2.664727558732915,-1.287661791985191,1.19291776141013,0.2189891040325165,-0.1267000138759613,0.5474070310592651,0.1744233667850494,-0.04338037967681885,-0.05825984477996826,2,0.5886731916232658,0.3192612920299075,0.5633455712718776,0.4839192331245773,-0.3542595207691193,-0.9294494390487671,-0.1030722036957741,-28.67742919921875,-39.50263977050781,14.61611938476562,2
1596229853.809432,34,0,102185.99777275,2.700934357389745,-1.326754050742827,1.173888110597461,0.3385121822357178,-0.2563011050224304,0.8696178793907166,0.2029733657836914,0.001717686653137207,-0.1240252256393433,2,0.5956950553953456,0.3137589526336766,0.5656566184193594,0.4761672316334672,-0.375114232301712,-0.922260582447052,-0.09340544044971466,-29.445556640625,-38.56627655029297,15.09576416015625,2
1596229853.824589,35,0,102186.02786975,2.743973875316752,-1.386121850793455,1.15213086287446,0.395668238401413,-1.022735953330994,0.7266252636909485,0.2920405268669128,0.01509898900985718,-0.1536656022071838,2,0.6079961528117428,0.3049832581286154,0.5636960719438349,0.4685856696799957,-0.3996285200119019,-0.9136322736740112,-0.07465177774429321,-29.92565155029297,-38.20600891113281,15.83932495117188,2
1596229853.867228,36,0,102186.05796675,2.785873602984568,-1.450966185106608,1.129398458989984,0.5354667901992798,-0.7002951502799988,0.9103319048881531,0.2243208885192871,0.07530397176742554,-0.01235735416412354,2,0.6224863880541609,0.2949169013560335,0.5592317565084569,0.4612964956932684,-0.4241400361061096,-0.9041553735733032,-0.05106943473219872,-30.64166259765625,-36.95795440673828,17.34161376953125,2
1596229853.885181,37,0,102186.08806475,2.820217345575676,-1.50079283922039,1.11608865046286,0.4155102074146271,-0.2382644563913345,0.02343097701668739,-0.1730680167675018,0.2266567945480347,0.01241576671600342,2,0.6329906573593249,0.2897630649354745,0.5546885636494475,0.4557199476403058,-0.4381237328052521,-0.898389458656311,-0.03072038851678371,-31.04971313476562,-36.35892486572266,17.91702270507812,2
1596229853.927962,38,0,102186.11816175,2.856967751501878,-1.533934978890617,1.116287820866017,0.6755355000495911,-0.130179837346077,0.1364309936761856,-0.2883670628070831,-0.002808094024658203,-0.1020362377166748,2,0.6367744477768977,0.2939875630688203,0.5524464673468391,0.4504358909790669,-0.4387224912643433,-0.8984768986701965,-0.01617923006415367,-31.02262878417969,-35.85148620605469,18.79397583007812,2
1596229853.94495,39,0,102186.14825875,2.900566279832755,-1.580258233958831,1.114248030386646,0.7342579960823059,-0.0975521132349968,-0.2621176242828369,-0.4823348224163055,0.1908475160598755,-0.06791126728057861,2,0.643372096683372,0.2969140698219538,0.5478380651698059,0.4447332094034554,-0.4408323466777802,-0.897579550743103,0.004171239212155342,-30.94028472900391,-35.49429321289062,19.09921264648438,2
1596229853.986833,40,0,102186.17835575,2.960556334982487,-1.631969000978269,1.131607125873657,0.7206733226776123,0.1363004893064499,-0.4986587166786194,-0.03686457872390747,-0.02297019958496094,0.009048223495483398,2,0.6455703058658633,0.3102198531139309,0.5407101168864015,0.4411747921699422,-0.4244104325771332,-0.905096709728241,0.02599475346505642,-30.40480041503906,-35.31772613525391,20.41476440429688,2
1596229854.005226,41,0,102186.20845275,3.012705774153118,-1.675101379192717,1.131826445962532,0.7588043808937073,0.2251746654510498,0.0735742598772049,0.1429943442344666,-0.05383580923080444,0.02623844146728516,2,0.6489793185987643,0.3177276807666341,0.5381142180725711,0.4339447886703584,-0.4226974546909332,-0.9051899313926697,0.04425007104873657,-30.35719299316406,-35.04273223876953,21.32232666015625,2
1596229854.046333,42,0,102186.23854975,3.060093159342009,-1.710917642282731,1.132460534417651,0.5604773759841919,0.3155036866664886,-0.1762772649526596,-0.09969669580459595,0.00110936164855957,0.2183609008789062,2,0.6508632888812143,0.3256007197385065,0.5365529779057824,0.4271674248914157,-0.4202732443809509,-0.9054592847824097,0.05927769839763641,-30.24993896484375,-34.70397186279297,21.71768188476562,2
1596229854.067269,43,0,102186.26864675,3.090983079580341,-1.721753343910263,1.135321630154385,0.2997059524059296,0.7291931509971619,-0.1709481030702591,-0.1196326613426208,-0.006528735160827637,0.3338189125061035,2,0.6481272256711829,0.3341409733321699,0.5390557818111534,0.4215442810893431,-0.4170430302619934,-0.9066699147224426,0.06343818455934525,-30.61280059814453,-34.44291687011719,22.05398559570312,2
1596229854.109561,44,0,102186.29874375,3.11218530677423,-1.714118867474208,1.14025357580144,0.2278777807950974,0.892109215259552,-0.2450227290391922,-0.1493857502937317,-0.04213637113571167,-0.06141304969787598,2,0.6414852194639551,0.3439524149698034,0.5450582769762291,0.4160587970198534,-0.4130848050117493,-0.9087393879890442,0.05961310118436813,-30.78175354003906,-34.63040161132812,21.60525512695312,2
1596229854.125538,45,0,102186.32884075,3.134149450951778,-1.709061579047192,1.149247975345493,0.3716363608837128,1.051207423210144,-0.409972220659256,-0.1149177253246307,0.1263489723205566,-0.1223142147064209,2,0.6344495378398354,0.3545010497412102,0.5495952773678339,0.4120046220072225,-0.4052687883377075,-0.9124565124511719,0.05639442056417465,-31.42195129394531,-34.63611602783203,20.83746337890625,2
1596229854.167179,46,0,102186.35893875,-3.11189144834242,-1.714660123694211,1.158916435055724,0.5014803409576416,0.8256585597991943,-0.4379250705242157,-0.1651116907596588,-0.04822808504104614,-0.2363806962966919,2,0.6272805726837036,0.3677179892474759,0.5537119513093068,0.4058392621921428,-0.3961966931819916,-0.9163698554039001,0.05739487335085869,-31.22196960449219,-34.59046936035156,20.6236572265625,2
1596229854.185634,47,0,102186.38903575,-3.060261802480165,-1.73737009924983,1.17057107050128,0.6959686279296875,0.9544140100479126,-0.471671998500824,0.04532846808433533,0.09231656789779663,-0.02523922920227051,2,0.6213715954500623,0.3823586953792737,0.5550369839799205,0.399540968058265,-0.3842324912548065,-0.9209732413291931,0.06460165977478027,-31.07235717773438,-34.72392272949219,20.37481689453125,2
1596229854.227168,48,0,102186.41913275,-3.000361678643757,-1.762682201977301,1.179296085025856,0.6671921014785767,0.8765813112258911,-0.3865979015827179,0.1090402007102966,0.01514440774917603,0.03738999366760254,2,0.6147428325052267,0.3980910328138795,0.5576552404306956,0.3906857616225348,-0.3745721280574799,-0.92433762550354,0.07277043908834457,-31.24258422851562,-34.77611541748047,20.2596435546875,2
1596229854.245741,49,0,102186.44922975,-2.950842462228938,-1.789152529254176,1.184438756255225,0.4877107441425323,0.3530764877796173,-0.1502995491027832,0.3283063173294067,-0.003936409950256348,0.08566462993621826,2,0.6109125471825936,0.4093896093709009,0.5583698635619134,0.3839388242011743,-0.3678691685199738,-0.9262877106666565,0.0816279873251915,-31.37102508544922,-34.62071990966797,20.10775756835938,2
1596229854.290078,50,0,102186.47932675,-2.929145239277179,-1.809037446536528,1.180375925432654,0.07654344290494919,-0.3417433202266693,0.2792449295520782,0.331587940454483,-0.07910388708114624,0.1641304492950439,2,0.6129935520379821,0.4112734061547125,0.5570002674855629,0.3805834093804388,-0.3698274791240692,-0.9247491359710693,0.08981382101774216,-31.39217376708984,-34.60361480712891,20.216552734375,2
1596229854.306056,51,0,102186.50942375,-2.945282900170497,-1.809004404553649,1.171293316760105,-0.2734288275241852,-0.4858614504337311,0.4096143245697021,0.1534603834152222,-0.0792425274848938,0.1000499725341797,2,0.618482269656805,0.4041899449484604,0.5551794751997496,0.3819499098008858,-0.3779766857624054,-0.9212543964385986,0.09177965670824051,-31.51859283447266,-34.20368194580078,20.7906494140625,2
1596229854.349404,52,0,102186.53952075,-2.984607369960103,-1.787307336029309,1.157161157703571,-0.5334292054176331,-0.61426842212677,0.7223237156867981,0.3045421838760376,0.02430105209350586,0.1740833520889282,2,0.6236408907737837,0.3927405567859866,0.5563909785080493,0.3837393889507589,-0.3925562798976898,-0.9156657457351685,0.08634620904922485,-31.50820159912109,-34.10581970214844,20.7969970703125,2
1596229854.366232,53,0,102186.56961775,-3.053259654560905,-1.747662954433413,1.136468000303621,-0.9669991135597229,-0.8489134907722473,0.9934648275375366,0.2713981866836548,-0.08066952228546143,0.4899312257766724,2,0.6304125201628936,0.3736296943122702,0.558712847258682,0.3883563948969164,-0.4142361879348755,-0.9071528911590576,0.07403818517923355,-32.13327789306641,-33.66222381591797,20.93865966796875,2
1596229854.410107,54,0,102186.59971575,3.129781730886787,-1.676921891989818,1.105716831210088,-1.588788151741028,-0.4371520578861237,1.464550614356995,0.1090542078018188,-0.1092913746833801,0.5916010141372681,2,0.6348987746709837,0.3473574935200512,0.5666875659367155,0.3938419714097654,-0.4459705650806427,-0.8937858939170837,0.04750736430287361,-32.43057250976562,-33.49034118652344,20.60867309570312,2
1596229854.426381,55,0,102186.62981275,3.010287080389243,-1.577985760506677,1.062237864139203,-1.976311802864075,-0.1077413111925125,1.521842241287231,-0.1019335985183716,0.09206712245941162,0.400784969329834,2,0.6339778206520575,0.3159468963196783,0.5826108929750007,0.3985148242448934,-0.4869057238101959,-0.8734472990036011,0.003500636667013168,-33.84214782714844,-33.05516815185547,19.40335083007812,2
1596229854.468569,56,0,102186.65990975,2.890188053247571,-1.482345531527374,1.021530324866206,-2.349025249481201,-0.6808816194534302,1.079614162445068,-0.1602483987808228,-0.05000925064086914,0.3458884954452515,2,0.6295471686293131,0.2839227111377957,0.5970719520429434,0.408121420174864,-0.5200200080871582,-0.8529079556465149,-0.04611651226878166,-35.49192810058594,-32.63214874267578,17.26449584960938,2
1596229854.486606,57,0,102186.69000675,2.685957543485257,-1.366810442017478,0.9540478053532999,-6.590291500091553,-4.042264461517334,2.743449926376343,0.004514455795288086,-0.8474329113960266,0.2484113574028015,2,0.626862450693371,0.2201373854367436,0.6055850991311991,0.438006402460719,-0.5663939714431763,-0.8157633543014526,-0.1171659976243973,-36.01300048828125,-32.97396850585938,15.99856567382812,2
1596229854.531872,58,0,102186.72010375,2.387328750739005,-1.340585995029987,0.8153074393691182,-7.322108745574951,-8.559009552001953,3.307593584060669,0.8756641745567322,-0.5010883212089539,-0.1754454970359802,2,0.6446397693143089,0.07882648541138471,0.5781694989604038,0.4939086279749648,-0.6675559282302856,-0.7279364466667175,-0.1564519107341766,-36.80320739746094,-32.86469268798828,15.33929443359375,2
1596229854.546805,59,0,102186.75020075,2.099545918664197,-1.440917213281494,0.663944881556763,-8.09367847442627,-10.92386913299561,3.674718856811523,1.347419857978821,0.1227665543556213,0.648066520690918,2,0.6628631859046317,-0.09803970709392179,0.5091740402219448,0.5401318565759525,-0.78093421459198,-0.6162285208702087,-0.1020012274384499,-35.95223999023438,-32.63211059570312,16.60052490234375,2
1596229854.591165,60,0,102186.78029775,1.824172544017994,-1.613098367915172,0.5465736877981306,-7.603219985961914,-10.33106517791748,3.688801288604736,0.6125032901763916,0.04994094371795654,1.215344548225403,2,0.6640030892050706,-0.2777841585164919,0.4076474785863606,0.561924475319419,-0.8535457849502563,-0.519763171672821,0.03612828254699707,-32.81711578369141,-33.49718475341797,20.18438720703125,2
1596229854.607071,61,0,102186.81039475,1.56174898678532,-1.774717916134138,0.4629897048999269,-6.581063270568848,-8.692459106445312,3.175816059112549,0.04100650548934937,0.5141521692276001,0.805611252784729,2,0.6341563981659786,-0.4340981275818654,0.3062650730908582,0.5617882615752455,-0.8761823773384094,-0.4466250538825989,0.1811910420656204,-31.54910278320312,-34.10056304931641,21.10635375976562,2
1596229854.647482,62,0,102186.84049275,1.365241062694922,-1.92562804129789,0.4449658923845019,-4.247161388397217,-7.444684505462646,1.517769694328308,-0.3069281578063965,1.17701256275177,0.391502857208252,2,0.6028200190049716,-0.5416721573590921,0.2109271354064717,0.5465427377503634,-0.8463961482048035,-0.4304271042346954,0.3136014044284821,-28.29876708984375,-36.13971710205078,22.27664184570312,2
1596229854.667049,63,0,102186.87058975,1.249593159796111,-2.04714907295155,0.4379653507666419,-1.959314584732056,-3.487548112869263,1.394320726394653,-0.6853123903274536,0.8369038105010986,0.697582483291626,2,0.5792657619796446,-0.6099855131615332,0.1466144836994952,0.5204546808523446,-0.8047971129417419,-0.4240977466106415,0.4152623116970062,-26.35392761230469,-36.97534942626953,23.10400390625,2
1596229854.710855,64,0,102186.90068675,1.225801267420292,-2.088224263234889,0.4366183876227258,0.470337450504303,0.5117180347442627,-0.3859682977199554,-1.106526374816895,1.04765772819519,0.6877808570861816,2,0.5745338635169113,-0.6277195327376497,0.1291444020883614,0.5091174608852228,-0.7875615954399109,-0.4228775203227997,0.4482419490814209,-24.75199127197266,-37.34505462646484,23.69329833984375,2
1596229854.727442,65,0,102186.930783875,1.265090606650146,-2.03565777945595,0.4445327776266298,1.086744546890259,3.338389873504639,-1.236205220222473,-0.7730981111526489,0.4670062959194183,0.5990644693374634,2,0.5840955128660299,-0.6009968183306418,0.1515734722585858,0.5240807788203794,-0.8070085048675537,-0.4300361275672913,0.4047294855117798,-24.88798522949219,-37.34589385986328,23.61676025390625,2
1596229854.771873,66,0,102186.960880875,1.305905322630712,-1.974792313955112,0.4722803891011075,0.1220142468810081,1.291265368461609,-1.239178657531738,0.0922885537147522,0.286899745464325,-0.1036708354949951,2,0.5953385744910034,-0.5662193693150636,0.170292042834527,0.5440295343040942,-0.8188429474830627,-0.45491823554039,0.3500647842884064,-25.78578186035156,-37.93958282470703,22.2652587890625,2
1596229854.787848,67,0,102186.990977875,1.299959330848245,-1.992681561311155,0.5024095851570007,-1.147980451583862,-2.466664791107178,-0.502288818359375,0.517757773399353,0.049671471118927,-0.25931715965271,2,0.599615168925386,-0.5655981429329884,0.1523916243382221,0.5452860668099351,-0.7995782494544983,-0.4815387427806854,0.3588792085647583,-25.49460601806641,-38.29673767089844,21.74664306640625,2
1596229854.829637,68,0,102187.021074875,1.263860995612004,-2.067017181701226,0.5258725471992225,-1.250254988670349,-3.051542520523071,0.07237941771745682,0.4342362880706787,-0.4045093059539795,0.06169378757476807,2,0.5973704914496065,-0.5907935745680906,0.1117619772836393,0.5306793480417195,-0.7605705261230469,-0.5019678473472595,0.4117771089076996,-22.60289001464844,-39.48813629150391,22.16720581054688,2
1596229854.848198,69,0,102187.051171875,1.227555539411918,-2.117494744201754,0.5336572789056134,-0.5086800456047058,-1.065823078155518,0.3037716448307037,-0.04518598318099976,-0.376461386680603,0.1096515655517578,2,0.5899312666939673,-0.6130028670955281,0.08431142632446889,0.5187483746249981,-0.7354643940925598,-0.5086854696273804,0.4475828409194946,-21.61024475097656,-40.1177978515625,22.40640258789062,2
1596229854.889451,70,0,102187.081268875,1.2248045349046,-2.120857666369701,0.5355365867621689,0.1175819560885429,0.3389329612255096,-0.406116396188736,-0.3018758296966553,0.08680152893066406,-0.01818442344665527,2,0.5894649885150138,-0.6142537671519872,0.08189046465576272,0.5181865246340591,-0.7331391572952271,-0.5103026032447815,0.4495533406734467,-20.93120574951172,-40.50707244873047,22.58642578125,2
1596229854.908346,71,0,102187.111365875,1.235404687593588,-2.118314635772439,0.548780618555495,-0.1303979456424713,-0.0480056144297123,-0.4407166242599487,0.01364928483963013,0.06480544805526733,-0.1132899522781372,2,0.5942553002342857,-0.6073924726807123,0.08035130986167355,0.521036033949998,-0.7284451127052307,-0.5216472744941711,0.4441299438476562,-20.40567016601562,-40.64547729492188,22.573486328125,2
1596229854.948544,72,0,102187.141463875,1.230967967331867,-2.132194454481338,0.5624155500892781,-0.4502637982368469,-0.9225508570671082,-0.2649734318256378,0.1702594757080078,-0.1234371662139893,-0.1827987432479858,2,0.5950853236321745,-0.6091451981158633,0.06987111851482686,0.5195511647576421,-0.7161227464675903,-0.533231258392334,0.4503688216209412,-19.82706451416016,-41.06529235839844,22.46392822265625,2
1596229854.968493,73,0,102187.171560875,1.218985792661451,-2.155671913255913,0.5735879314516099,-0.4825811386108398,-0.966699481010437,0.0676673948764801,0.3359379768371582,-0.1224530935287476,0.0008120536804199219,2,0.5934594912309241,-0.6161775365795079,0.05551284632033374,0.514829401713543,-0.7003418803215027,-0.5426492691040039,0.4637378454208374,-19.05189514160156,-41.39847564697266,22.24014282226562,2
1596229855.010136,74,0,102187.201657875,1.201157926912427,-2.169405738534497,0.574897440008921,-0.3285097777843475,-0.6228034496307373,0.3471544682979584,0.2074834704399109,-0.1307536363601685,0.006942272186279297,2,0.5884286113790883,-0.6246658645212763,0.04637601097881403,0.5112665586065411,-0.6933194994926453,-0.5437487363815308,0.4729113578796387,-18.58991241455078,-41.78104400634766,22.31576538085938,2
1596229855.028656,75,0,102187.231754875,1.188837860838936,-2.176603465566604,0.5707078643807396,-0.0899806022644043,-0.2267759442329407,0.2822092771530151,0.119466245174408,-0.07122665643692017,-0.1357803344726562,2,0.5842424163637339,-0.6310721071836024,0.04275018777695355,0.5085087548618286,-0.6917643547058105,-0.5402278900146484,0.4791824221611023,-18.71173858642578,-41.60440063476562,22.33706665039062,2
1596229855.071391,76,0,102187.261851875,1.179451554526919,-2.171027804123736,0.5609662206113353,0.03864108771085739,0.03441116586327553,0.4825929403305054,0.1190685629844666,-0.1534129977226257,-0.2254443168640137,2,0.5800151802440596,-0.6345993350521653,0.04577464251266505,0.5086950485891674,-0.6987350583076477,-0.5320045948028564,0.4782678484916687,-18.92236328125,-41.56557464599609,22.09918212890625,2
1596229855.088879,77,0,102187.291948875,1.170883185057809,-2.170508638043368,0.5474503459049055,0.02880364842712879,-0.2705414295196533,0.6576916575431824,0.1613576412200928,-0.2607933282852173,-0.1424601078033447,2,0.5756549580045023,-0.6399852540805477,0.04901295223619678,0.5065942844685982,-0.7048548460006714,-0.5205118656158447,0.481919527053833,-19.60588836669922,-41.19712829589844,22.13052368164062,2
1596229855.129401,78,0,102187.322045875,1.15548533315665,-2.171076950849025,0.525047154135629,0.0844503790140152,-0.09683670848608017,0.85670006275177,-0.238009512424469,0.05884724855422974,-0.03862345218658447,2,0.5679366715243386,-0.6494927081763922,0.05370877629618043,0.5027151384020851,-0.7140259742736816,-0.5012537837028503,0.4887856841087341,-20.1334228515625,-40.91035461425781,22.34262084960938,2
1596229855.14903,79,0,102187.352142875,1.154290216540803,-2.164103036427119,0.5146600696033417,0.2619181871414185,0.4941557943820953,-0.3085792362689972,-0.5608496069908142,0.3152450025081635,0.009699702262878418,2,0.5660269800375657,-0.6503483761691364,0.05944266357573286,0.503117237503537,-0.7216952443122864,-0.4922389686107635,0.4866791069507599,-20.90522766113281,-40.17609405517578,22.46792602539062,2
1596229855.191362,80,0,102187.382239875,1.171985779867021,-2.151485680521419,0.521425212105927,0.3764432668685913,1.039745688438416,-0.4568123817443848,-0.2309702038764954,0.105426549911499,0.02842831611633301,2,0.5722170374623634,-0.6406373045497307,0.06487272514599066,0.50788092339684,-0.7249774932861328,-0.4981164634227753,0.4756969809532166,-21.037109375,-40.25368499755859,22.53070068359375,2
1596229855.209159,81,0,102187.412337875,1.193710752727197,-2.127122424881573,0.5259754826317298,0.5296174883842468,1.245981335639954,-0.595142126083374,-0.1539130210876465,0.001479506492614746,-0.07407879829406738,2,0.5788353130127697,-0.6271333008950996,0.07568552370834114,0.5156792318580458,-0.7344181537628174,-0.502056896686554,0.4566929936408997,-21.07585906982422,-40.51895141601562,22.07815551757812,2
1596229855.251705,82,0,102187.442434875,1.222527959170766,-2.103164199089081,0.5355074019026211,0.5770896077156067,1.382858514785767,-0.6933841705322266,-0.01567548513412476,-0.108720064163208,-0.081024169921875,2,0.5880193388260321,-0.6103220222844907,0.08651707428014357,0.5236936836307302,-0.7409909963607788,-0.5102774500846863,0.4365194141864777,-21.14559936523438,-40.53733062744141,22.30535888671875,2
1596229855.269422,83,0,102187.472531875,1.250520350866394,-2.073945577645822,0.5402215167797355,0.6148823499679565,1.411366105079651,-0.4773384928703308,0.02229511737823486,-0.04230028390884399,0.02265048027038574,2,0.5956910772147175,-0.5932221837263715,0.1007696165421094,0.5320572559379091,-0.7513114809989929,-0.5143259763717651,0.4135208427906036,-21.12856292724609,-40.26261901855469,22.12799072265625,2
1596229855.312766,84,0,102187.502628875,1.279616698743635,-2.047372011215358,0.547660054009609,0.6682528853416443,1.474263906478882,-0.7017454504966736,-0.02245986461639404,-0.0009987950325012207,0.03352665901184082,2,0.603748793119858,-0.5755958016776794,0.1137532095499618,0.5396637521947558,-0.758613109588623,-0.52069091796875,0.3916462659835815,-21.48299407958984,-40.19805145263672,21.87652587890625,2
1596229855.329656,85,0,102187.532725875,1.317874786135723,-2.015781381193769,0.5555017882709309,0.9802122712135315,1.967066526412964,-0.7382470965385437,0.01533776521682739,-0.04813981056213379,0.0809025764465332,2,0.613651093443881,-0.5534373082984105,0.1308762676197171,0.5477325223103771,-0.7668959498405457,-0.5273696780204773,0.3657210469245911,-21.82807922363281,-40.09013366699219,22.1202392578125,2
1596229855.372278,86,0,102187.562822875,1.366470377652107,-1.976226805407075,0.5631103240451741,1.364038228988647,2.42097020149231,-0.8132707476615906,0.1791296005249023,-0.07820987701416016,0.1329784393310547,2,0.6249496515540786,-0.5255435544726,0.1537820533910203,0.5564105799698094,-0.7770480513572693,-0.5338188409805298,0.3335161805152893,-22.04656982421875,-39.97397613525391,22.12872314453125,2
1596229855.38977,87,0,102187.592919875,1.424296753910266,-1.928579212857367,0.5645752486762941,1.514004111289978,2.734538316726685,-0.4970451295375824,0.05218786001205444,-0.03654968738555908,0.2093542814254761,2,0.6358490762555312,-0.4935812586577945,0.1844844312204882,0.5639491900737794,-0.7913179993629456,-0.535057008266449,0.2958530187606812,-22.68789672851562,-39.50434112548828,22.13497924804688,2
1596229855.429775,88,0,102187.623016875,1.490554779500241,-1.8741466086144,0.5665255675294051,2.038985967636108,3.501211881637573,-0.9933183789253235,-0.3750438690185547,0.3157658576965332,0.1531585454940796,2,0.6463404802446537,-0.4563652364917786,0.2200626418159702,0.5705673488653078,-0.8052449822425842,-0.5367036461830139,0.2520504891872406,-24.27492523193359,-38.4981689453125,21.98748779296875,2
1596229855.450147,89,0,102187.653113875,1.580236298096024,-1.791236902553982,0.584502415218584,2.48487114906311,5.245246410369873,-1.370181918144226,-0.503774106502533,0.5006656646728516,0.193938136100769,2,0.6577811248414557,-0.3981250573343301,0.2669463207705475,0.5809991205279635,-0.813805103302002,-0.5517844557762146,0.1823591440916061,-25.3016357421875,-38.22303009033203,21.84280395507812,2
1596229855.486529,90,0,102187.683210875,1.687255089222297,-1.668009610646544,0.6163643799437427,2.93408465385437,6.842347621917725,-1.527666449546814,-0.3819186091423035,0.307823657989502,0.2555727958679199,2,0.6627099126995177,-0.3168839424150824,0.3289719699083341,0.5934453587459518,-0.8121325969696045,-0.5780723690986633,0.07919972389936447,-27.54449462890625,-37.61690521240234,20.02008056640625,2
1596229855.51028,91,0,102187.713308875,1.809950334435442,-1.523453406694325,0.6525164364234549,3.743784666061401,7.445635318756104,-1.002073407173157,-0.1773641705513,0.221820592880249,0.1711366176605225,2,0.6573903169457186,-0.2214421917634084,0.4024248413341569,0.5973737665864803,-0.7936679124832153,-0.607187807559967,-0.03760265558958054,-29.44205474853516,-37.20056915283203,18.68560791015625,2
1596229855.550573,92,0,102187.743405875,1.96597042520872,-1.384955489500487,0.6944526343908203,4.640746116638184,8.102472305297852,-0.9447526931762695,-0.1467493772506714,0.2758044004440308,0.7789889574050903,2,0.6448201509974252,-0.1149645359042531,0.4817807978523932,0.5821315819156855,-0.7551729083061218,-0.6399649381637573,-0.1419802606105804,-32.88256072998047,-35.96070098876953,15.443603515625,2
1596229855.570124,93,0,102187.773502875,2.147762809393881,-1.266289218284375,0.7749088934554271,5.390898704528809,7.66148567199707,-2.055272102355957,0.03160512447357178,0.3828299045562744,1.04055118560791,2,0.6267750083221986,0.006602736324914121,0.5495663061855026,0.552346290129534,-0.681614875793457,-0.6996510028839111,-0.2142189890146255,-34.22474670410156,-35.27342987060547,13.58901977539062,2
1596229855.609023,94,0,102187.803599875,2.325667233940669,-1.16129614216121,0.8918918339404054,4.914603233337402,7.836307525634766,-2.133407354354858,0.3299164175987244,0.2600864171981812,1.097685813903809,2,0.5973739196105305,0.1346730415406561,0.598560911707219,0.516461333477658,-0.5760225057601929,-0.778261125087738,-0.2500151395797729,-34.99390411376953,-35.62157440185547,10.47857666015625,2
1596229855.630091,95,0,102187.833696875,2.499451261085983,-1.076218192963632,0.9990393370383851,3.963141679763794,7.392146587371826,-1.559424996376038,0.340259850025177,0.2086882591247559,0.5951148867607117,2,0.5567029428033649,0.2483143013394197,0.6377668334604072,0.4708240755947354,-0.4762686491012573,-0.8409515619277954,-0.2568436861038208,-34.90586853027344,-36.05046844482422,8.7884521484375,2
1596229855.671504,96,0,102187.863793875,2.622113794230571,-0.9949659321272368,1.102107910558694,2.904725313186646,4.885520458221436,-2.329724311828613,0.250240296125412,0.09507328271865845,-0.2352523803710938,2,0.5111087380648927,0.3402661130120341,0.6594165236938441,0.4337700490067836,-0.3788726031780243,-0.8921615481376648,-0.2459736615419388,-34.40118408203125,-37.19763946533203,5.49444580078125,2
1596229855.69054,97,0,102187.893890875,2.676938476599607,-0.9414807985718602,1.200785788758672,2.115928411483765,2.044657707214355,-1.787814378738403,0.7015881538391113,-0.1246331334114075,-0.2385621070861816,2,0.4801040572574602,0.4038258747662065,0.6566142548980514,0.4186674503417414,-0.2923488318920135,-0.9323235154151917,-0.2128495126962662,-33.22244262695312,-38.21190643310547,4.83990478515625,2
1596229855.727148,98,0,102187.92398725,2.731840835509805,-0.9733990407004321,1.249793800027322,0.7045601010322571,-0.819719672203064,-0.4403459429740906,0.4777936041355133,-0.2684590816497803,-0.00440526008605957,2,0.4765898800694001,0.4290965795712622,0.6461901063997461,0.4137348141378919,-0.2608709335327148,-0.9489195942878723,-0.1774764209985733,-31.16668701171875,-39.88137817382812,5.581878662109375,2
1596229855.750699,99,0,102187.95408425,2.72749854075866,-1.013229043690505,1.272443299828515,-0.1193068698048592,-1.537572264671326,-0.7473317980766296,0.2910855114459991,-0.1912586688995361,0.1891629695892334,2,0.4887493641949356,0.4282023177511563,0.6290269454765169,0.4267221050583881,-0.2494262456893921,-0.9558219313621521,-0.1555336713790894,-30.79412078857422,-40.15434265136719,6.617034912109375,2
1596229855.792107,100,0,102187.98418225,2.672027945446238,-1.026825669528945,1.278451872816076,-0.5525214672088623,-2.792707204818726,-0.1767881512641907,0.2831395864486694,-0.4791901707649231,0.1738778352737427,2,0.5042535248692845,0.4137049249743914,0.6117440598875663,0.447600024350675,-0.2465995252132416,-0.9575708508491516,-0.1491532325744629,-29.0330810546875,-40.72995758056641,8.6500244140625,2
1596229855.810931,101,0,102188.01427925,2.636136206823323,-1.066985656567827,1.275635668768985,-0.009916592389345169,-1.885389924049377,-0.1318633109331131,0.2059039175510406,0.1228891611099243,0.2620103359222412,2,0.5237826398188634,0.3942525316346425,0.5940628269024615,0.466160804354886,-0.2547494471073151,-0.9567553997039795,-0.1404333710670471,-28.64118957519531,-40.91102600097656,9.656463623046875,2
1596229855.850716,102,0,102188.04437625,2.627794342620215,-1.097717063195031,1.286669803872315,0.1701079308986664,-0.9280187487602234,-0.702328622341156,-0.4548563957214355,0.1964870095252991,0.03382617235183716,2,0.5337533529894658,0.3889044720422122,0.5806630993227303,0.4761205865242512,-0.2495308965444565,-0.9599068760871887,-0.1277213394641876,-27.73830413818359,-41.15390777587891,11.17437744140625,2
1596229855.871106,103,0,102188.07447325,2.5939326088093,-1.077504730840736,1.311931964212743,0.1812863051891327,0.01136079337447882,-0.864167332649231,-0.1681651175022125,-0.2068955898284912,-0.2108504772186279,2,0.5330081000721009,0.3940748612937798,0.5702404420306664,0.4852144450882602,-0.2254639118909836,-0.9666813015937805,-0.1212147399783134,-26.14743041992188,-41.85881805419922,11.92788696289062,2
1596229855.910936,104,0,102188.10457025,2.585341955078226,-1.065124494232728,1.332734433999886,0.2132436484098434,0.1959461867809296,-0.363791435956955,0.3520779311656952,-0.2232260704040527,-0.1050296425819397,2,0.5299922879276169,0.4024839335660984,0.5650148222861375,0.4877222544747672,-0.2063062489032745,-0.9717968702316284,-0.114229716360569,-25.71052551269531,-41.85623931884766,12.29962158203125,2
1596229855.931266,105,0,102188.13466725,2.598796603211786,-1.077248843663453,1.341457541668649,0.2883695662021637,0.01649810560047626,-0.2342022359371185,-0.08907449245452881,0.08984112739562988,-0.07287478446960449,2,0.5301596098886406,0.4063015316917742,0.5623696977137891,0.4874320634026938,-0.200202614068985,-0.9738169312477112,-0.1076997071504593,-25.05355834960938,-42.21505737304688,12.52178955078125,2
1596229855.968536,106,0,102188.16476425,2.60546026468927,-1.074344238924399,1.360103098960194,0.3026091754436493,0.583196759223938,-0.7331784963607788,-0.2480008602142334,0.07191628217697144,0.1530616879463196,2,0.5267630344434983,0.4155883548400536,0.5589431379157456,0.4872263405862464,-0.1838899850845337,-0.9778861403465271,-0.09961404651403427,-24.82276153564453,-42.28382110595703,12.68270874023438,2
1596229855.991356,107,0,102188.19486125,2.612486818386649,-1.063357306257651,1.381437758894818,0.4240970611572266,0.5401453971862793,-0.38443523645401,0.2862375378608704,-0.05214476585388184,0.0496978759765625,2,0.5207691014162125,0.4278619100038543,0.5568159259163872,0.485478612987654,-0.1645094454288483,-0.9821251630783081,-0.09146745502948761,-24.03224182128906,-42.75564575195312,12.72265625,2
1596229856.031947,108,0,102188.22495825,2.614252897019217,-1.064764297021573,1.388480121355941,-0.1063589602708817,-0.6820902824401855,-0.06375929713249207,0.1707977950572968,-0.02970820665359497,0.1536387205123901,2,0.5202898559853064,0.4305317724911992,0.554650211225715,0.486111060882692,-0.158585250377655,-0.9834263920783997,-0.08788171410560608,-23.79054260253906,-42.82958984375,12.97299194335938,2
1596229856.051697,109,0,102188.25505525,2.580639752770682,-1.053872661249661,1.391583040715221,-0.09669940173625946,-0.6285792589187622,-0.2323513925075531,0.1260672807693481,0.05868673324584961,0.0122685432434082,2,0.5242733777527212,0.425546650904354,0.5482753183253362,0.4933979144767675,-0.1549646407365799,-0.9839842319488525,-0.08809494972229004,-23.3128662109375,-42.85832214355469,13.19558715820312,2
1596229856.092156,110,0,102188.28515225,2.560282054681873,-1.048583450311745,1.394597530079831,0.0297345258295536,-0.2210032939910889,-0.1509505808353424,-0.05728021264076233,-0.03578948974609375,-0.04983377456665039,2,0.5269622949885447,0.4226037933721463,0.5436530355835677,0.4981546553433021,-0.1519252061843872,-0.9845170974731445,-0.08743354678153992,-22.98619842529297,-42.96060943603516,13.45877075195312,2
1596229856.111833,111,0,102188.31525025,2.569918914042105,-1.05361397433026,1.398849750920851,0.2036994248628616,0.3472548723220825,0.03318779915571213,0.1614587903022766,-0.04844039678573608,-0.02704298496246338,2,0.5260291725391013,0.4254347198535788,0.5433601317995352,0.4970494698454679,-0.1487223505973816,-0.9852535724639893,-0.08459721505641937,-22.77140045166016,-43.25569152832031,13.5845947265625,2
1596229856.151572,112,0,102188.34534725,2.611530741548916,-1.088906009233269,1.400845651059431,0.2338188886642456,0.01237742975354195,0.03641334176063538,0.09664437174797058,0.1070703864097595,-0.08988738059997559,2,0.5266016583474005,0.4283667912436603,0.543739011612969,0.4934979133747947,-0.1498714983463287,-0.9855931401252747,-0.07838517427444458,-22.92980194091797,-42.99083709716797,13.50875854492188,2
1596229856.172083,113,0,102188.37544425,2.648803261401247,-1.119713805243033,1.400145508323108,0.1904584616422653,0.3313732147216797,0.2692105770111084,0.1745702624320984,-0.1278674006462097,0.01701474189758301,2,0.527042433607837,0.4303601400734069,0.5450090764689606,0.4898790432055824,-0.1528369933366776,-0.9854744672775269,-0.07403284311294556,-23.10908508300781,-42.73779296875,13.792724609375,2
1596229856.207804,114,0,102188.40554125,2.709703019874609,-1.173681952640526,1.39370988248741,0.2541576027870178,-0.09054958075284958,0.3310704529285431,0.2094155251979828,0.08699250221252441,-0.06084936857223511,2,0.5292885825260093,0.4310308722501857,0.5475822093599171,0.4839623138602525,-0.1624526232481003,-0.9843611121177673,-0.06813196837902069,-23.28221130371094,-42.73690032958984,13.80941772460938,2
1596229856.232231,115,0,102188.43563825,2.756851381510455,-1.229462730561947,1.385347293728108,0.07946080714464188,-0.3648723065853119,0.4373893439769745,0.02452981472015381,-0.006652712821960449,0.09394091367721558,2,0.5353773175390415,0.4272116281207906,0.5466490758489574,0.4817012723143093,-0.1737502664327621,-0.9828535318374634,-0.06172270700335503,-24.12586212158203,-42.43763732910156,14.56564331054688,2
1596229856.270126,116,0,102188.46573525,2.788278487766594,-1.269495376891394,1.374801257555741,0.07275459915399551,-0.189271554350853,0.2822745442390442,-0.1744519174098969,-0.0130423903465271,0.02301716804504395,2,0.5409678567580571,0.4224424785091261,0.5465440158649907,0.4797767084745201,-0.1859693676233292,-0.9808543920516968,-0.05779226124286652,-24.15851593017578,-42.31148529052734,14.55484008789062,2
1596229856.292437,117,0,102188.49583225,2.818715719665096,-1.304566244976131,1.366854085168182,0.1216875314712524,-0.2694045901298523,0.3954736590385437,0.08804568648338318,0.06267386674880981,0.01356709003448486,2,0.5452185786039971,0.4196357293545817,0.5465979739388541,0.4773605514804963,-0.1953956484794617,-0.9792757630348206,-0.05328511074185371,-24.53668212890625,-41.87186431884766,14.82418823242188,2
1596229856.331198,118,0,102188.52592925,2.833604319345188,-1.330595160928822,1.35677865510639,-0.1006551012396812,-0.3022895455360413,0.239908367395401,-0.2099812030792236,-0.03168404102325439,0.09321486949920654,2,0.5506552871642518,0.4141443226216749,0.545871168195703,0.4767470883081141,-0.2062894850969315,-0.9771854877471924,-0.05052646994590759,-24.72842407226562,-41.64083862304688,15.13638305664062,2
1596229856.352642,119,0,102188.55602625,2.831466434829969,-1.332915766887906,1.349607268637048,-0.04905404523015022,-0.06943365186452866,0.2567654848098755,-0.03922444581985474,-0.00735926628112793,0.0069236159324646,2,0.5527620028335649,0.4106157782785287,0.5467320401577684,0.476374700801904,-0.2132114619016647,-0.9756372570991516,-0.05169770121574402,-25.05256652832031,-41.40338134765625,15.35943603515625,2
1596229856.389454,120,0,102188.58612325,2.832829201265808,-1.336879497521315,1.342721975960786,-0.0183337964117527,-0.04669887945055962,0.1416742503643036,-0.05535072088241577,0.1073126792907715,0.05314505100250244,2,0.5545546341328929,0.4077562405128421,0.547881227671327,0.4754262091446552,-0.2199441343545914,-0.974103569984436,-0.05240801349282265,-25.31374359130859,-41.28936767578125,15.38348388671875,2
1596229856.41285,121,0,102188.61622025,2.825852562808187,-1.331008468098887,1.340272343113011,-0.09972962737083435,-0.0837891474366188,-0.003703529015183449,-0.07878503203392029,-0.1024957895278931,-0.1437641382217407,2,0.5547133893356309,0.4063995328225964,0.5485337143686408,0.4756502407149254,-0.2219499200582504,-0.9735468029975891,-0.05426495149731636,-25.36893463134766,-41.24268341064453,15.22891235351562,2
1596229856.451461,122,0,102188.64631825,2.820904284675795,-1.328391125634385,1.337598772685114,-0.05879676714539528,-0.06850624829530716,0.2240546494722366,0.2152712941169739,0.1308136582374573,0.1660821437835693,2,0.5553734203261472,0.4047532740435216,0.5488300699183891,0.4759418559623636,-0.2243332117795944,-0.9729324579238892,-0.0554703027009964,-25.51805114746094,-41.16545104980469,15.34335327148438,2
1596229856.473038,123,0,102188.67641525,2.813565204339044,-1.329617962822034,1.332660874364654,-0.2521934807300568,-0.2894072830677032,-0.1195358261466026,-0.3792244493961334,-0.07056564092636108,0.06821060180664062,2,0.557871524193467,0.4007599125766258,0.5481200112798773,0.4772160034242325,-0.2290630042552948,-0.971779465675354,-0.05634171143174171,-25.49845123291016,-41.08281707763672,15.3753662109375,2
1596229856.510634,124,0,102188.70651225,2.784790079024287,-1.300949813640042,1.337008453935041,-0.0371568389236927,0.446559876203537,-0.0862981453537941,0.01785433292388916,0.04246360063552856,0.0006099939346313477,2,0.555203598902638,0.4010860919105576,0.5479833247984441,0.4802012116222911,-0.2232805788516998,-0.972795844078064,-0.06175782158970833,-25.40562438964844,-41.28656768798828,15.13687133789062,2
1596229856.533247,125,0,102188.73660925,2.783014521755305,-1.285242577609488,1.335593529587431,-0.03090971708297729,0.2646701037883759,0.07419107854366302,0.1103896200656891,0.0009015202522277832,-0.1268601417541504,2,0.5514212523412712,0.4038716477965055,0.5523071143745493,0.4772619213064485,-0.2236026376485825,-0.9724671244621277,-0.06564459204673767,-25.59707641601562,-41.40869140625,14.97171020507812,2
1596229856.569452,126,0,102188.76670625,2.775590915314175,-1.276132518723267,1.332808714999636,-0.1267454028129578,0.02741698548197746,0.1131910234689713,0.08649057149887085,-0.001377701759338379,0.08873671293258667,2,0.5507477940786067,0.403043710136173,0.5538439873241789,0.4769585029189014,-0.2255864590406418,-0.9718143343925476,-0.06846527010202408,-25.63508605957031,-41.28720092773438,14.3846435546875,2
1596229856.59323,127,0,102188.79680325,2.769794460696704,-1.267143548814579,1.327108382647392,-0.06509166955947876,0.09641626477241516,0.1600347757339478,0.09368294477462769,0.02005654573440552,-0.08748090267181396,2,0.5501141548328299,0.4016237961421437,0.5565726048085993,0.4757095667725252,-0.230244368314743,-0.9704547524452209,-0.0721454843878746,-25.8673095703125,-41.24897003173828,14.46331787109375,2
1596229856.631118,128,0,102188.82690025,2.773873386456067,-1.269871738099851,1.321191033690031,-0.03096067532896996,-0.05744164809584618,0.2971838116645813,0.147851437330246,0.0234757661819458,0.02209538221359253,2,0.550771087550928,0.4000528640308015,0.5584844283079846,0.474029428887601,-0.2359204888343811,-0.9690099954605103,-0.07321783155202866,-26.10196685791016,-41.00580596923828,14.28561401367188,2
1596229856.653602,129,0,102188.85699725,2.774639891870712,-1.275208381766513,1.312122645367685,-0.121837854385376,-0.1460498124361038,0.2039686143398285,-0.118637889623642,-0.01347213983535767,0.02093738317489624,2,0.5532042299772136,0.3958634129152456,0.5597757856075597,0.4731892531377039,-0.2447040379047394,-0.9667301177978516,-0.0745144784450531,-26.32502746582031,-40.83423614501953,14.32357788085938,2
1596229856.689813,130,0,102188.88709425,2.770105109256827,-1.269971424779328,1.307443845795166,-0.0247180238366127,0.2314042001962662,0.1263919621706009,-0.07303532958030701,0.04783499240875244,0.007585823535919189,2,0.5531903169081931,0.3942248883851457,0.5614811895575279,0.4725525346795563,-0.2486279755830765,-0.9655227065086365,-0.07713442295789719,-26.6129150390625,-40.85716247558594,14.26553344726562,2
1596229856.713833,131,0,102188.917191625,2.772226988274278,-1.263174224546644,1.303532424111774,-0.03601264208555222,0.241812601685524,0.1086139529943466,-0.02428796887397766,0.00739741325378418,-0.01189917325973511,2,0.5513177540546652,0.3950518948207196,0.5649683804983607,0.4698864029422407,-0.2516951560974121,-0.9644970893859863,-0.07996547222137451,-26.57705688476562,-40.58502960205078,14.07073974609375,2
1596229856.747888,132,0,102188.947288625,2.766926933752909,-1.251053207329642,1.298514433445991,-0.2652414441108704,0.4394009411334991,0.3032936453819275,0.02762830257415771,-0.03360044956207275,0.06607651710510254,2,0.5495088013052023,0.3946829888637063,0.568486849116677,0.468068533486976,-0.2552996873855591,-0.9631597399711609,-0.08453083038330078,-27.07478332519531,-40.57592010498047,13.82864379882812,2
1596229856.774061,133,0,102188.977385625,2.764934077606831,-1.251013919919653,1.283626194415274,0.003249459899961948,-0.4412583410739899,0.3162811696529388,0.1014035940170288,0.01199334859848022,-0.1772037148475647,2,0.5515640639691458,0.3889184778630404,0.5722488976293112,0.4658868639386836,-0.2688798308372498,-0.9590492248535156,-0.08903900533914566,-27.34353637695312,-40.48955535888672,13.42703247070312,2
1596229856.810033,134,0,102189.007483625,2.765978365905083,-1.26708198421604,1.280481253797045,0.01226706057786942,-0.3660725355148315,0.02678799442946911,-0.09935957193374634,0.06218773126602173,0.0442497730255127,2,0.5562997593372373,0.3843514944240248,0.5689280201569606,0.4681082940004337,-0.2731527984142303,-0.9581537246704102,-0.08560901135206223,-27.53961944580078,-40.26246643066406,13.86196899414062,2
1596229856.834084,135,0,102189.037580625,2.762632813368063,-1.266492017108267,1.279265255789614,-0.1126615703105927,0.09572931379079819,0.03784958273172379,-0.03776842355728149,0.005193829536437988,0.06092560291290283,2,0.5569112578462962,0.3831322310143523,0.5686500450658861,0.4687179610355298,-0.2742133140563965,-0.9578049182891846,-0.08611908555030823,-27.72346496582031,-40.49337005615234,13.84375,2
1596229856.872158,136,0,102189.067677625,2.757741049977142,-1.258360770324799,1.277447346395125,-0.01647650822997093,0.09617296606302261,0.01576166413724422,-0.04814553260803223,0.04326701164245605,-0.06078660488128662,2,0.5557355494870612,0.3830371350977742,0.5702776967357829,0.4682135103485289,-0.2751608490943909,-0.9572808742523193,-0.08888110518455505,-27.75448608398438,-40.31543731689453,13.58554077148438,2
1596229856.894384,137,0,102189.097774625,2.75958344180189,-1.257515273014337,1.278613256635975,0.05162215232849121,0.08692488819360733,-0.06569887697696686,-0.08472940325737,0.02178788185119629,-0.01706111431121826,2,0.5550122335740409,0.3841570572742007,0.5706149131941786,0.4677427051656998,-0.2740232050418854,-0.9576173424720764,-0.08876955509185791,-27.61131286621094,-40.30345916748047,13.60531616210938,2
1596229856.930992,138,0,102189.127871625,2.761992646290492,-1.255987373605757,1.280010481587839,0.01011127419769764,0.1791344285011292,0.01467974297702312,0.02924543619155884,0.006141960620880127,0.03409123420715332,2,0.5539575230303705,0.385673654307087,0.5712079839232543,0.4670205772986279,-0.2726148664951324,-0.9580188393592834,-0.08877378702163696,-27.54336547851562,-40.65161895751953,13.56179809570312,2
1596229856.954576,139,0,102189.157968625,2.773194758628978,-1.256272929099696,1.280038679029154,0.07698135823011398,0.2919370830059052,0.07177136838436127,0.01523730158805847,0.006333768367767334,0.05229854583740234,2,0.5518674065813206,0.3887140760547531,0.5737278934555592,0.4638747707419339,-0.2726141512393951,-0.9580269455909729,-0.088687464594841,-27.88593292236328,-40.34932708740234,13.52410888671875,2
1596229856.988718,140,0,102189.188065625,2.76327685112523,-1.245015006905861,1.276424173933965,0.03727167472243309,0.0784568190574646,0.01600880548357964,-0.07525762915611267,-0.0001243352890014648,-0.0533682107925415,2,0.5509587173753008,0.3873179436052015,0.575548067204867,0.4638680631770425,-0.2748776078224182,-0.9569845199584961,-0.09285860508680344,-27.89604949951172,-40.20941925048828,13.34414672851562,2
1596229857.014721,141,0,102189.218162625,2.766398301451523,-1.246323409544127,1.277228741983616,0.0862429141998291,0.06050070375204086,-0.0364873856306076,0.03034225106239319,0.02216088771820068,0.01463735103607178,2,0.5506418969225733,0.3881581895860337,0.5756848792672069,0.4633719506284761,-0.2742691934108734,-0.9572176337242126,-0.0922534391283989,-27.98318481445312,-40.35760498046875,13.1414794921875,2
1596229857.049786,142,0,102189.248259625,2.770222791008485,-1.247351130637862,1.277741034740933,0.07462994754314423,0.05221344530582428,-0.01336950436234474,-0.01309368014335632,0.01558184623718262,0.01263713836669922,2,0.5501380138409971,0.3891534455670296,0.5761430213859652,0.4625654291959401,-0.2738984823226929,-0.9573657512664795,-0.0918155238032341,-27.99051666259766,-40.20388031005859,13.28466796875,2
1596229857.075016,143,0,102189.278356625,2.775382093954374,-1.252947990458876,1.277937258372704,0.03670787066221237,-0.07856906950473785,0.01981534622609615,0.02726593613624573,-0.002320408821105957,-0.003732442855834961,2,0.5507236662045799,0.3893484225617344,0.5757405471265723,0.4622055367897877,-0.274229884147644,-0.9574223756790161,-0.09022250026464462,-27.81193542480469,-40.04749298095703,13.44216918945312,2
1596229857.110476,144,0,102189.308453625,2.77674384570416,-1.257111767100802,1.276346474721542,-0.02808296494185925,-0.1354846656322479,0.1290680170059204,0.03007292747497559,-0.01206433773040771,0.02050322294235229,2,0.5518369482620182,0.3882024910479028,0.5753528953896477,0.4623241472030468,-0.2760511934757233,-0.9569619297981262,-0.08954961597919464,-28.26833343505859,-40.14076995849609,13.39028930664062,2
1596229857.135123,145,0,102189.338550625,2.776223920860873,-1.262646177143806,1.272817881126571,-0.07383543252944946,-0.251432329416275,0.05368770658969879,0.006807088851928711,0.02362000942230225,0.01973146200180054,2,0.5539288535815587,0.3855395320887662,0.5746887684605103,0.4628766543767802,-0.2797588706016541,-0.9559319615364075,-0.08904419094324112,-28.06826782226562,-40.22954559326172,13.650390625,2
1596229857.168372,146,0,102189.368647625,2.76661762535701,-1.259806682277546,1.271223993674333,-0.1211850121617317,-0.1521390378475189,0.009862877428531647,-0.004141509532928467,0.01290589570999146,0.008999943733215332,2,0.5551383456751497,0.3829741501668023,0.5736937910522391,0.464787746886153,-0.2809554636478424,-0.9554628133773804,-0.09030443429946899,-28.04930114746094,-40.17739105224609,13.55410766601562,2
1596229857.195354,147,0,102189.398744625,2.758293450342175,-1.255011886671564,1.271278815911636,-0.01981706172227859,-0.02143545635044575,-0.04759634658694267,-0.049998939037323,0.03263652324676514,0.005190014839172363,2,0.5553492123930841,0.3817986369408468,0.5730717279202084,0.4662678387480297,-0.2804690003395081,-0.9554789662361145,-0.0916341096162796,-27.92522430419922,-40.29277801513672,13.57794189453125,2
1596229857.230698,148,0,102189.428842625,2.759184057754259,-1.25365856747651,1.271942460331397,0.009163143113255501,0.1235149130225182,0.0128112630918622,-0.02838078141212463,0.02020037174224854,-0.005611777305603027,2,0.5547187046335788,0.3825952823071994,0.5734687621233931,0.4658772788804987,-0.2797428071498871,-0.9556745886802673,-0.0918160155415535,-28.18643188476562,-40.09700012207031,13.54574584960938,2
1596229857.25559,149,0,102189.458939625,2.756691353636254,-1.248189415490025,1.270722166712163,-0.07137605547904968,0.08286678791046143,0.03769442811608315,-0.006640195846557617,-0.01480185985565186,0.0006452202796936035,2,0.5537580261699599,0.3827466360669862,0.5747469153891424,0.4653202747686194,-0.2803418934345245,-0.955314576625824,-0.09371412545442581,-28.07020568847656,-40.04030609130859,13.48355102539062,2
1596229857.288281,150,0,102189.489036625,2.750541974768054,-1.239839715891262,1.269248442720252,-0.03876879811286926,0.07783521711826324,-0.0004534842446446419,-0.03449055552482605,0.02090317010879517,0.01777559518814087,2,0.552689188853265,0.3824658542882012,0.5760413258534405,0.4652213654579166,-0.2808810472488403,-0.9548779129981995,-0.09650906175374985,-28.18649291992188,-40.09963989257812,13.32943725585938,2
1596229857.315783,151,0,102189.519133625,2.750743886417296,-1.238079908087068,1.270255935867905,0.04362493008375168,0.05296438187360764,-0.05213844031095505,-0.03250259160995483,0.03400826454162598,-0.05819904804229736,2,0.5520375481830335,0.3832885417874421,0.5762898310302607,0.4650101038687764,-0.2798011600971222,-0.9551766514778137,-0.0966888815164566,-28.49594879150391,-40.14557647705078,13.16567993164062,2
1596229857.350545,152,0,102189.549230625,2.751359692868252,-1.234998526524915,1.272041198451261,0.02239252626895905,0.153313934803009,-0.05977076292037964,-0.006987541913986206,0.003765106201171875,0.02506673336029053,2,0.5508433105457934,0.3848082833427932,0.5767780509541651,0.4645655855316629,-0.2778912782669067,-0.9557036161422729,-0.09698846191167831,-28.18517303466797,-40.14699554443359,13.10369873046875,2
1596229857.376012,153,0,102189.579327625,2.753902471549744,-1.233552533476867,1.273953369140404,0.03610880300402641,0.1594284772872925,-0.0411849357187748,-0.01127368211746216,0.02308636903762817,0.0001116394996643066,2,0.5497343175622683,0.3865222792458718,0.5772255762299628,0.4639000963607164,-0.2760259807109833,-0.9562646746635437,-0.09678541868925095,-28.10887145996094,-40.16941833496094,13.06283569335938,2
1596229857.410044,154,0,102189.609424625,2.750358279545046,-1.222002138825998,1.275046166573236,-0.104785330593586,0.4489371478557587,-0.06102951616048813,0.01587605476379395,-0.004849374294281006,-0.002504229545593262,2,0.5469673818652907,0.3886152064631692,0.5792614247912715,0.4628833382585218,-0.2739072144031525,-0.9565837979316711,-0.09960980713367462,-28.22140502929688,-40.28783416748047,12.85671997070312,2
1596229857.436043,155,0,102189.639521625,2.737256730443807,-1.195222823458051,1.275132747886885,-0.0558178573846817,0.4038282036781311,-0.03258181735873222,0.03742465376853943,-0.008150398731231689,0.02266848087310791,2,0.5417285604688006,0.3912687870189055,0.5834976137057313,0.461485910329722,-0.2710645794868469,-0.9566090106964111,-0.1068778038024902,-28.17595672607422,-40.29579162597656,12.62008666992188,2
