loggingTime,loggingSample,identifierForVendor,motionTimestamp_sinceReboot,motionYaw,motionRoll,motionPitch,motionRotationRateX,motionRotationRateY,motionRotationRateZ,motionUserAccelerationX,motionUserAccelerationY,motionUserAccelerationZ,motionAttitudeReferenceFrame,motionQuaternionX,motionQuaternionY,motionQuaternionZ,motionQuaternionW,motionGravityX,motionGravityY,motionGravityZ,motionMagneticFieldX,motionMagneticFieldY,motionMagneticFieldZ,motionMagneticFieldCalibrationAccuracy
1596229847.405667,1,0,102179.587069625,2.520277249353733,-1.007528243655659,1.235283674468026,0.02824873849749565,-0.0245214682072401,-0.03706078603863716,-0.04292470216751099,0.002471089363098145,-0.009676218032836914,2,0.5297373143622249,0.3625958274215684,0.5943384790474291,0.4844215445907006,-0.2783880829811096,-0.9442416429519653,-0.1758052855730057,-28.65126037597656,-41.15548706054688,9.67889404296875,2
1596229847.413792,2,0,102179.617166625,2.521164366495256,-1.008105443276184,1.237083962691221,0.03697264194488525,0.01865952461957932,-0.05871665105223656,-0.02192509174346924,0.02022135257720947,-0.003678321838378906,2,0.5297041755597425,0.3633795827844801,0.5938574136949311,0.484460541202279,-0.2770513594150543,-0.9448328614234924,-0.1747375279664993,-28.48697662353516,-41.31517791748047,9.855438232421875,2
1596229847.443755,3,0,102179.647264625,2.519234665763558,-1.005975415396123,1.239522571440871,0.02722713351249695,0.02551179192960262,-0.07976178079843521,0.003892123699188232,0.01609981060028076,0.01907575130462646,2,0.5293639029684437,0.3643172225880968,0.5932173287667467,0.484912403877124,-0.2747318148612976,-0.945628821849823,-0.174093633890152,-28.60589599609375,-41.33173370361328,9.738372802734375,2
1596229847.474068,4,0,102179.677361625,2.525027413771311,-1.006659763572253,1.241334850078107,0.2025827914476395,0.4137370884418488,0.04510115459561348,-0.02937686443328857,0.04381024837493896,-0.1617158651351929,2,0.5284638591231585,0.3663761767833934,0.5938909109312747,0.4835162703056201,-0.2734020948410034,-0.9462167024612427,-0.1729888916015625,-28.42552185058594,-41.23738861083984,9.819061279296875,2
1596229847.50982,5,0,102179.707458625,2.545102358193847,-1.014967444786802,1.242579645387956,0.1577729284763336,0.1923875361680984,0.07560116797685623,-0.06735086441040039,-0.05171436071395874,-0.04310232400894165,2,0.5272040320046665,0.3701499736438978,0.5961542643900868,0.4792127048435385,-0.2738287150859833,-0.9466187357902527,-0.1700898110866547,-28.57882690429688,-41.27042388916016,9.739715576171875,2
1596229847.534085,6,0,102179.737556625,2.556748986364605,-1.024916224514766,1.242835650640988,0.111982136964798,-0.1376403272151947,-0.01121143437922001,0.08872786164283752,0.03490167856216431,0.02190309762954712,2,0.5280035617236516,0.3709398027979495,0.5962391875761357,0.4776137395356838,-0.2753009498119354,-0.9467012286186218,-0.1672317981719971,-28.60630798339844,-41.08004760742188,9.905975341796875,2
1596229847.568571,7,0,102179.767653625,2.541646006209593,-1.020125652023417,1.250285875003789,0.09606240689754486,-1.162220358848572,-0.3324240148067474,0.04194286465644836,0.004684090614318848,0.08510535955429077,2,0.5291344547599471,0.3709312839700177,0.5916359465143524,0.4820723317128562,-0.2684785127639771,-0.9490747451782227,-0.164853423833847,-28.08128356933594,-41.10283660888672,10.08810424804688,2
1596229847.594374,8,0,102179.797750625,2.53986722515814,-1.051203033409176,1.261932011313925,0.0396282896399498,-0.3413176536560059,-0.1767784208059311,0.1310107111930847,0.05274033546447754,0.233137845993042,2,0.538154765092588,0.3673188162325866,0.5793811647444443,0.489677164503584,-0.2638581991195679,-0.9526793956756592,-0.1509326696395874,-27.75419616699219,-41.35420227050781,10.82421875,2
1596229847.629096,9,0,102179.827847625,2.545578873025692,-1.063575491040129,1.258634564937982,0.09610884636640549,-0.09655956923961639,0.1523004323244095,-0.1055164933204651,-0.105308473110199,-0.03525376319885254,2,0.5408199134305804,0.3645859931968088,0.5784422569912502,0.4898931958152536,-0.2684497833251953,-0.9516718983650208,-0.1491817533969879,-27.21121215820312,-41.31510925292969,11.26766967773438,2
1596229847.654548,10,0,102179.857945625,2.546620028099904,-1.064384579798908,1.261344555109196,0.03377445042133331,0.07798489928245544,-0.1896064877510071,-0.09303247928619385,0.106561005115509,0.07872051000595093,2,0.5407533864042995,0.3656902172880637,0.5776577785834465,0.4900691190609401,-0.2663138210773468,-0.9525006413459778,-0.1477128863334656,-27.33078002929688,-41.33960723876953,11.511474609375,2
1596229847.688803,11,0,102179.888042625,2.547766378390526,-1.062261093116689,1.265178757047269,0.05421269685029984,0.07529859989881516,-0.03119064494967461,0.03853172063827515,-0.04002916812896729,-0.01291757822036743,2,0.5397717778471826,0.3679630643604145,0.5773500712121395,0.4898128594173796,-0.2628084719181061,-0.953661322593689,-0.1464992165565491,-27.28330230712891,-41.49956512451172,11.43832397460938,2
1596229847.714802,12,0,102179.918139,2.561177890788533,-1.074985895279464,1.267452999160041,0.2609714269638062,-0.05336963385343552,0.02397116459906101,0.0430271327495575,0.02589309215545654,-0.07113683223724365,2,0.5408707130888997,0.3693284324545535,0.5765029777473247,0.4885689277079789,-0.2627423703670502,-0.9543431401252747,-0.1421107649803162,-27.16417694091797,-41.53318023681641,11.49700927734375,2
1596229847.748556,13,0,102179.948237,2.57626961073399,-1.093786851568967,1.270549485571805,0.05580438300967216,-0.1437741219997406,-0.06162482127547264,-0.01016640663146973,0.01591575145721436,0.06132662296295166,2,0.5433372177116991,0.3699869268909156,0.5741558603799378,0.4880976044762233,-0.2627410292625427,-0.9552634954452515,-0.1357886791229248,-27.20755767822266,-41.56612396240234,11.90707397460938,2
1596229847.774986,14,0,102179.978334,2.586567013108249,-1.10798022664616,1.271381727909277,0.1624425947666168,0.002098303288221359,0.02741307951509953,-0.05391347408294678,-0.002069592475891113,-0.001678824424743652,2,0.5454568409577624,0.3696367300830637,0.5725543227952422,0.4878801290669568,-0.2639304995536804,-0.9555093050003052,-0.131691038608551,-27.05461120605469,-41.33975219726562,12.093505859375,2
1596229847.810247,15,0,102180.008431,2.596782705186101,-1.116770679251897,1.271680655149253,0.07942090928554535,-0.02396571449935436,0.06128732860088348,-0.02453789114952087,0.002460002899169922,-0.03107863664627075,2,0.5460660088938951,0.3703938469614432,0.5725545783347361,0.4866225493347104,-0.2648212015628815,-0.955597460269928,-0.1292406171560287,-27.15364837646484,-41.32744598388672,12.23873901367188,2
1596229847.835246,16,0,102180.038528,2.612268945787624,-1.134539389555937,1.270573991143014,0.06915263831615448,-0.1654278934001923,0.1741058379411697,0.01533907651901245,0.0107039213180542,-0.05540335178375244,2,0.5483523766620688,0.369903741570107,0.5717869108553812,0.4853252653551351,-0.2680341601371765,-0.9552707672119141,-0.1249617859721184,-27.16544342041016,-41.17922973632812,12.5302734375,2
1596229847.870071,17,0,102180.068626,2.628368615662824,-1.152123045318664,1.265031017302427,0.1175672933459282,0.02641776017844677,0.2334469258785248,-0.05478754639625549,-0.03738963603973389,-0.05695086717605591,2,0.5507866847735187,0.3680268615491636,0.5724985076922439,0.4831518378144696,-0.2750234007835388,-0.9536168575286865,-0.1223805174231529,-27.21084594726562,-41.07231903076172,12.53500366210938,2
1596229847.895387,18,0,102180.098723,2.648169954081069,-1.172002475861796,1.263222375901277,0.08419191092252731,0.03097207471728325,0.02091288380324841,-0.02742111682891846,0.08487480878829956,0.1106332540512085,2,0.5529647263706094,0.368036029344513,0.5723175857834006,0.480865998190134,-0.2789908349514008,-0.9530708789825439,-0.1175589859485626,-27.40872955322266,-40.90592956542969,12.71038818359375,2
1596229847.932516,19,0,102180.12882,2.654600836053094,-1.175393619972573,1.261936971431926,0.09336875379085541,-0.08977715671062469,0.1613134741783142,0.1930293440818787,-0.0576101541519165,0.05761587619781494,2,0.5528507041604318,0.3685296502725317,0.5733001300114876,0.4794465458427442,-0.2805182337760925,-0.9526808857917786,-0.1170839890837669,-27.55056762695312,-40.79184722900391,12.78927612304688,2
1596229847.955491,20,0,102180.158917,2.670693319200954,-1.20856634162072,1.255846556308497,0.01658817753195763,-0.9904409050941467,0.4117867350578308,0.3934024572372437,-0.02698779106140137,0.02215808629989624,2,0.5598820365182142,0.3628321745589091,0.569700868648956,0.4799228181593814,-0.2896676957607269,-0.9508119225502014,-0.1097698360681534,-27.76917266845703,-40.71353149414062,13.29647827148438,2
1596229847.991316,21,0,102180.189015,2.691520526322142,-1.266213709092652,1.239656962129097,0.006004629656672478,-1.481135606765747,0.6189313530921936,0.3450583219528198,-0.01266449689865112,-0.07087123394012451,2,0.5739495243386143,0.3490428769006996,0.5629864297543468,0.4814532434887088,-0.3101559281349182,-0.9456725120544434,-0.09750203043222427,-27.86647796630859,-40.42552185058594,13.93560791015625,2
1596229848.015896,22,0,102180.219112,2.705731131097644,-1.327732802904475,1.220843292957302,0.08888614177703857,-1.606826066970825,0.776856005191803,0.2586972117424011,0.01058471202850342,-0.1096926927566528,2,0.5905612892267403,0.3316306024042362,0.5537479377013971,0.4843775764870284,-0.3327753245830536,-0.9393888115882874,-0.08251701295375824,-28.12711334228516,-39.88889312744141,15.44088745117188,2
1596229848.048935,23,0,102180.249209,2.734517573875495,-1.398509702595013,1.197705979385814,0.2568956613540649,-1.153632402420044,0.7695218324661255,0.02952897548675537,0.05641472339630127,-0.1025708913803101,2,0.6078702527740355,0.3150398149313367,0.5457547685837613,0.4831100163492441,-0.3590984046459198,-0.9312053918838501,-0.06248734146356583,-28.10707092285156,-39.38496398925781,16.30996704101562,2
1596229848.075936,24,0,102180.279307,2.778714941054862,-1.461368374600901,1.180111513219891,0.6197824478149414,-0.3640643060207367,0.3817162811756134,-0.2490594983100891,0.1187705397605896,-0.1770482063293457,2,0.6201996810081408,0.307502313136593,0.5416301010073293,0.4768975904687051,-0.3785434067249298,-0.9246484637260437,-0.04158936440944672,-28.758544921875,-38.54280090332031,17.8223876953125,2
1596229848.107479,25,0,102180.309404,2.837953656072304,-1.520060212396732,1.174591489923216,0.7802038788795471,0.006929945200681686,0.4139331877231598,-0.04944527149200439,0.1004973649978638,-0.07866376638412476,2,0.6276498200686143,0.3102738567747291,0.5386915711231444,0.4686119726937911,-0.3854232430458069,-0.9225322604179382,-0.01957167498767376,-28.80361175537109,-37.99082183837891,18.3460693359375,2
1596229848.136109,26,0,102180.339501,2.889989190836212,-1.564726987302112,1.16652850348641,0.6117815971374512,0.1159039214253426,-0.1072332039475441,-0.3818628787994385,0.1101157665252686,0.08652353286743164,2,0.6327677702153088,0.3137057257159326,0.5385957430387091,0.4594651723981829,-0.3933383524417877,-0.9193906188011169,-0.002387333195656538,-29.28262329101562,-37.07653045654297,19.49749755859375,2
1596229848.168468,27,0,102180.369598,2.937519745734581,-1.607351103047732,1.174093377295833,0.6414176821708679,0.09193577617406845,-0.226517453789711,-0.1121078133583069,0.01911067962646484,-0.07635486125946045,2,0.6354263998058829,0.3213934022560732,0.5342414961599765,0.455549638343732,-0.38612100481987,-0.922339916229248,0.01412085723131895,-28.99147033691406,-36.83885192871094,19.81475830078125,2
1596229848.196314,28,0,102180.399696,2.996679023704846,-1.658086776824859,1.177612092015319,0.657799243927002,0.1194421947002411,-0.2047874629497528,-0.02564269304275513,0.01831561326980591,0.0931326150894165,2,0.6386827963460403,0.3298255959005199,0.5306997045899406,0.4490625662727121,-0.3816728889942169,-0.9236937761306763,0.03340127691626549,-28.87818145751953,-36.69351196289062,20.67434692382812,2
1596229848.228281,29,0,102180.429793,3.047599003001438,-1.706477099488886,1.181236789524375,0.415107786655426,-0.2346180528402328,-0.1335589736700058,0.1780242919921875,0.007708430290222168,0.258591890335083,2,0.6422944499484704,0.3363678378815088,0.5258420464745763,0.4447521884437007,-0.3762902021408081,-0.925076425075531,0.05137096717953682,-28.89263916015625,-36.25027465820312,21.79550170898438,2
1596229848.256428,30,0,102180.45989,3.070725688124253,-1.737137240144799,1.181363823975194,0.1575677990913391,-0.2249390631914139,0.09730622917413712,0.2215877771377563,-0.03115266561508179,0.2490519285202026,2,0.6464004569245214,0.3370427197907166,0.5210772810963228,0.4438997934895532,-0.3744227886199951,-0.9251246452331543,0.06286269426345825,-28.41103363037109,-36.17318725585938,22.17825317382812,2
1596229848.287113,31,0,102180.489987,3.072859975211247,-1.745093932116454,1.173728934770983,0.1107347160577774,-0.1504656672477722,0.2125224620103836,-0.1271780133247375,-0.05161905288696289,-0.03384554386138916,2,0.6496629797048625,0.3338703746947874,0.5204221695981123,0.4423000628653775,-0.3808562457561493,-0.9221990704536438,0.06706282496452332,-28.40763092041016,-35.82247924804688,22.31292724609375,2
1596229848.317166,32,0,102180.520085,3.078523313863478,-1.751769561812978,1.171644593161843,0.1430826038122177,0.2288873344659805,0.01619325205683708,-0.1455007195472717,0.03531527519226074,0.02757549285888672,2,0.6508777644625511,0.3336658572126723,0.5198942692196857,0.4412879732835808,-0.3822897672653198,-0.9213910102844238,0.06994953751564026,-28.30854034423828,-35.8533935546875,22.58755493164062,2
1596229848.347524,33,0,102180.550182,3.092054773897978,-1.74879631883073,1.166796730238256,0.3181065022945404,0.8433696031570435,0.08177326619625092,-0.3953422904014587,-0.1258913278579712,-0.3881040811538696,2,0.6488211872857252,0.3373906110303744,0.5247279918459125,0.4357283103536688,-0.3868879973888397,-0.9194961190223694,0.06960271298885345,-28.68247222900391,-35.6949462890625,22.49972534179688,2
1596229848.377203,34,0,102180.580279,3.124341980796753,-1.743527217321796,1.16894311582605,0.6395213007926941,1.504023313522339,-0.3724478185176849,-0.407643735408783,0.155051589012146,-0.213619589805603,2,0.6414392605259379,0.3495248084766154,0.532999820395552,0.4269651484214383,-0.3853042125701904,-0.9203377366065979,0.06722383201122284,-29.20457458496094,-35.68011474609375,22.23806762695312,2
1596229848.408544,35,0,102180.610376,-3.10140859093592,-1.749887273825465,1.180627779471991,0.6883370876312256,1.427386522293091,-0.5416989922523499,0.0124850869178772,0.03010261058807373,0.01652693748474121,2,0.630321630503142,0.3695550871117732,0.5410296840430697,0.4164258352742238,-0.3742608428001404,-0.9248449802398682,0.06775263696908951,-30.135986328125,-35.55606079101562,21.32156372070312,2
1596229848.437297,36,0,102180.640474,-3.049777425191649,-1.764893107549079,1.185772828173776,0.4891649782657623,0.7297568917274475,-0.05145066604018211,0.4155199825763702,0.002623796463012695,0.2226662635803223,2,0.6235244217766632,0.3839770873988225,0.5460923808601662,0.4068931912425066,-0.3685285449028015,-0.9267895817756653,0.07244221866130829,-30.02669525146484,-35.49656677246094,21.0303955078125,2
1596229848.470657,37,0,102180.670571,-3.024172001080124,-1.772365809566129,1.182320431436264,0.2138092815876007,0.4740752279758453,0.1560933440923691,0.2624953389167786,-0.0781484842300415,0.2700560092926025,2,0.6214109443279202,0.3895709072265485,0.549484540223246,0.4001869094713368,-0.3711090683937073,-0.9254874587059021,0.07583411037921906,-30.63677215576172,-35.264892578125,20.76779174804688,2
1596229848.497262,38,0,102180.700668,-3.018691327410034,-1.762783306930926,1.174737649436614,0.008716965094208717,0.368353396654129,0.2735888957977295,0.1916323900222778,0.08676058053970337,0.1992188692092896,2,0.6194419014406206,0.3912767239976952,0.5547333466330518,0.3942905421916837,-0.3786967396736145,-0.9225886464118958,0.07361149042844772,-30.90052795410156,-34.85631561279297,20.798583984375,2
1596229848.52861,39,0,102180.730765,-3.030069327171129,-1.748032338742017,1.166242615602732,-0.2330120950937271,0.009919255040585995,0.3563409149646759,0.1850684285163879,-0.04928475618362427,0.08309817314147949,2,0.619489429280886,0.3884987638722863,0.5584033308181279,0.3917743558802108,-0.3874422013759613,-0.9192781448364258,0.06939688324928284,-31.49065399169922,-34.68853759765625,20.39556884765625,2
1596229848.557518,40,0,102180.760863,-3.063022742593531,-1.723750626186005,1.154300992560679,-0.4922187030315399,-0.3642420470714569,0.5543872117996216,0.1835432946681976,0.04302304983139038,0.06163370609283447,2,0.6216701328005338,0.3799278714203269,0.5614100039368003,0.3924281967068911,-0.3998348414897919,-0.9145123958587646,0.06163788214325905,-31.90957641601562,-34.60719299316406,20.4185791015625,2
1596229848.587786,41,0,102180.79096,-3.119617052952987,-1.686183254795134,1.136333665889209,-0.9261186718940735,-0.5130465030670166,0.9448968768119812,0.2309620082378387,-0.1843867301940918,0.2610067129135132,2,0.6254170761304876,0.3648069546754109,0.5650344359164409,0.3956074968442193,-0.4181236326694489,-0.9070963263511658,0.04846126586198807,-32.16880035400391,-34.21781158447266,20.075439453125,2
1596229848.617735,42,0,102180.821057,3.079515310818591,-1.629879593145529,1.103503339925652,-1.520430207252502,-0.6682143211364746,1.327263593673706,0.2268284261226654,-0.0441291332244873,0.6781653165817261,2,0.6305609083798698,0.3401365032456385,0.5720090723309148,0.3993814483916873,-0.4496847093105316,-0.8927909731864929,0.02659980021417141,-32.63201904296875,-34.00460815429688,19.729248046875,2
1596229848.650844,43,0,102180.851154,2.952924101614213,-1.5370706171407,1.059442552907297,-2.516209363937378,-0.6888263821601868,1.665775656700134,-0.08191204071044922,-0.06023192405700684,0.6862753629684448,2,0.631371510291264,0.3051550548102766,0.5845571507458678,0.4080970390225651,-0.4890797138214111,-0.8720828294754028,-0.01650081761181355,-33.90171813964844,-33.53766632080078,18.54800415039062,2
1596229848.677856,44,0,102180.881252,2.789436145254936,-1.42852592403013,1.004967388688016,-3.070722341537476,-1.227692365646362,1.272703886032104,-0.4259197115898132,0.3554098010063171,0.6105104684829712,2,0.62895390609436,0.2576990845476118,0.5966777161934548,0.4265955549850129,-0.5306990146636963,-0.8441444635391235,-0.07601632922887802,-34.75051879882812,-33.23391723632812,17.55239868164062,2
1596229848.708078,45,0,102180.911348875,2.61725454875222,-1.317964123865804,0.952789928647228,-4.343282222747803,-1.943745732307434,1.121630549430847,-0.936420738697052,-0.2192403674125671,-0.6025574207305908,2,0.619507512537416,0.2091443648896907,0.605801897611366,0.4532915854070646,-0.5609908699989319,-0.8150351643562317,-0.1449381560087204,-35.85775756835938,-33.429931640625,14.71469116210938,2
1596229848.738079,46,0,102180.941445875,2.386964367209011,-1.24453014339615,0.8707869066245687,-6.223830699920654,-5.749924182891846,1.6428462266922,0.4688192009925842,-0.765350878238678,-0.8647005558013916,2,0.6175847114432627,0.123892628506088,0.5943537937646296,0.4999832408600804,-0.6102391481399536,-0.7648361325263977,-0.206479474902153,-36.13999176025391,-34.39555358886719,12.62344360351562,2
1596229848.768057,47,0,102180.971542875,2.129781536766262,-1.31761127431735,0.740750233775722,-7.553531646728516,-10.45276832580566,2.856956958770752,1.415842890739441,-0.349486231803894,-0.1207343935966492,2,0.6378784610065142,-0.02618073404291335,0.5373931921460897,0.5510300827844152,-0.7144358158111572,-0.6748417615890503,-0.18485127389431,-35.56618499755859,-34.57768249511719,13.24844360351562,2
1596229848.800831,48,0,102181.001640875,1.861653117541897,-1.483267274521138,0.6256525094874907,-7.269494533538818,-11.31503772735596,1.981697797775269,1.07476806640625,0.3424211144447327,0.5355196595191956,2,0.6510389145868637,-0.2017892984565205,0.4386054481311926,0.5857085219809967,-0.8074778318405151,-0.5856263041496277,-0.07085882127285004,-33.07920074462891,-35.40957641601562,16.907470703125,2
1596229848.828253,49,0,102181.031737875,1.616278734722465,-1.687690634681646,0.5735646333896449,-5.855966091156006,-11.08969783782959,1.816641569137573,0.3879603147506714,0.1638690233230591,0.4700402021408081,2,0.6480407671037411,-0.3592010580610768,0.3148627491453161,0.5931939675428726,-0.8342396020889282,-0.5426296591758728,0.09796447306871414,-30.56076812744141,-36.39875793457031,18.53768920898438,2
1596229848.858584,50,0,102181.061834875,1.445345000660692,-1.890396223899578,0.5424808462880478,-3.280585527420044,-7.642927169799805,2.272486448287964,0.04844474792480469,0.5034202337265015,0.6751267910003662,2,0.6342074009344416,-0.4819964272783497,0.2102417423226631,0.5667970659036081,-0.8130620718002319,-0.5162622332572937,0.269079178571701,-25.47228240966797,-38.34211730957031,21.60797119140625,2
1596229848.888459,51,0,102181.091931875,1.369752972306851,-1.977867564259749,0.5063942218147103,0.6443474292755127,-0.2567952573299408,0.8422112464904785,-1.270901679992676,1.388484239578247,0.4595485925674438,2,0.6182561572025117,-0.5393290385801186,0.1744826625025537,0.5444622608580861,-0.8030385971069336,-0.4850271642208099,0.3462329804897308,-24.31414031982422,-38.35924530029297,22.36029052734375,2
1596229848.918787,52,0,102181.122029875,1.447126977609502,-1.928768562927552,0.5067040860346491,2.458723545074463,4.693455696105957,-2.132047891616821,-1.458356618881226,0.4633286595344543,0.7324175834655762,2,0.6337071207880529,-0.5015880203252535,0.2109216214591698,0.5498515039345058,-0.8189229369163513,-0.4852980971336365,0.3063504993915558,-25.19833374023438,-37.58431243896484,23.22640991210938,2
1596229848.950168,53,0,102181.152126875,1.530335452265805,-1.83879968380205,0.5530561514023163,1.034443497657776,3.460975170135498,-1.735536217689514,0.3738856315612793,-0.1239965558052063,0.471811056137085,2,0.6492924538665712,-0.4371319009785752,0.2474054644175169,0.571073840035689,-0.8205462098121643,-0.5252902507781982,0.2253299802541733,-25.42333221435547,-37.62569427490234,22.66763305664062,2
1596229848.978838,54,0,102181.182223875,1.537448210734937,-1.808362294504364,0.5731538927319377,-0.7638176679611206,-1.619632005691528,0.174443855881691,1.19135570526123,-0.5700158476829529,-0.1872152090072632,2,0.6497364675658653,-0.4203656446772069,0.2526571995886239,0.5807750347093336,-0.8165969252586365,-0.5422846078872681,0.1977294981479645,-25.96790313720703,-38.25966644287109,21.4390869140625,2
1596229849.00885,55,0,102181.212320875,1.493371663433876,-1.886658663290553,0.5572471486280437,-1.235239148139954,-4.434445381164551,1.478095412254333,0.6528199911117554,0.03253656625747681,0.04098737239837646,2,0.6471382714639997,-0.461554696285251,0.2199753911865464,0.5654998342479415,-0.8067271709442139,-0.5288518071174622,0.263641357421875,-25.62464141845703,-38.75606536865234,21.67379760742188,2
1596229849.039072,56,0,102181.242418875,1.438927803810952,-1.965469707780436,0.5317055027528651,-0.7509016394615173,-1.980664610862732,0.5089909434318542,-0.8410115242004395,0.02095514535903931,0.0548018217086792,2,0.6386499183623079,-0.5077773250834977,0.1883062320269107,0.5466526923498394,-0.7956792116165161,-0.5070041418075562,0.3314230740070343,-24.04297637939453,-38.35529327392578,23.36016845703125,2
1596229849.070921,57,0,102181.272515875,1.434384052701548,-1.977393032915116,0.5527205103669193,-0.2779549658298492,0.3811221718788147,-1.210860848426819,-0.7869752645492554,0.1127594709396362,-0.003878593444824219,2,0.641248312045459,-0.5070497812137993,0.1758700223706867,0.5484258540249902,-0.7817111015319824,-0.5250045657157898,0.3365977704524994,-23.34138488769531,-38.53237152099609,23.53616333007812,2
1596229849.099997,58,0,102181.302612875,1.446573516125058,-1.96457708731019,0.584649492302709,-0.05277570709586143,0.590298056602478,-0.7259042263031006,0.3799818158149719,-0.1176372170448303,-0.09074234962463379,2,0.6470763522603403,-0.491192069440288,0.1721344441965978,0.5571284371060226,-0.770082414150238,-0.5519071221351624,0.31995490193367,-22.05254364013672,-39.25035095214844,22.8087158203125,2
1596229849.129222,59,0,102181.332709875,1.438993006997216,-1.963286892413145,0.5911844315284278,-0.4882675409317017,-0.8373348116874695,0.3660100400447845,0.630759596824646,-0.1331838965415955,0.04231572151184082,2,0.6458883960003651,-0.4915441355400344,0.1681355352687044,0.5594131292010267,-0.7671460509300232,-0.5573448538780212,0.3175749182701111,-21.73329162597656,-39.78771209716797,22.7470703125,2
1596229849.159377,60,0,102181.362807875,1.415780422675763,-1.98178633002461,0.5824085373980538,-0.3246898353099823,-0.8116001486778259,0.5303641557693481,0.1837222576141357,0.1352587342262268,0.1734374761581421,2,0.6405493216389428,-0.506480974008321,0.1588253248958051,0.5549307315970873,-0.7655946016311646,-0.5500370264053345,0.3336528241634369,-21.80550384521484,-40.05152893066406,22.65399169921875,2
1596229849.189469,61,0,102181.392904875,1.409110780507313,-1.98477968899482,0.5734198341404273,0.1655297428369522,0.366407185792923,0.1597126722335815,-0.1632013916969299,0.2717175483703613,0.1741198301315308,2,0.6379911298987195,-0.5117875009352325,0.159219357234332,0.5528924855456528,-0.7690880298614502,-0.542508065700531,0.3379182517528534,-21.89349365234375,-39.52475738525391,22.80203247070312,2
1596229849.220032,62,0,102181.423001875,1.417806874319496,-1.971188607346795,0.5723262605678541,0.2378720939159393,0.5665867924690247,-0.295047253370285,-0.1671297550201416,0.1596565246582031,0.008926868438720703,2,0.6389611900053771,-0.5055308715207673,0.1663561278501085,0.5554213586011079,-0.7741554975509644,-0.541589081287384,0.3276657164096832,-22.22923278808594,-39.67303466796875,22.72573852539062,2
1596229849.252204,63,0,102181.453098875,1.42484396817669,-1.966754116315842,0.5772205783320344,0.0597720630466938,-0.05624041706323624,-0.006420065183192492,0.269835352897644,0.04228335618972778,-0.07268702983856201,2,0.640968128158096,-0.5007608514924163,0.1679999489625097,0.556932945806378,-0.7731456756591797,-0.5456969141960144,0.3232031464576721,-22.34177398681641,-39.63002777099609,22.819091796875,2
1596229849.279823,64,0,102181.483195875,1.421410817789418,-1.981099698048821,0.5718422027746282,-0.1482088565826416,-1.001681923866272,0.3317751884460449,0.2799186110496521,-0.225124716758728,-0.03160750865936279,2,0.6406333832017541,-0.5072496640727914,0.1643553269693674,0.5525160503978812,-0.7711101770401001,-0.5411821007728577,0.3354267179965973,-22.2281494140625,-39.38563537597656,22.94790649414062,2
1596229849.309783,65,0,102181.513293875,1.407761766562363,-2.004405732313445,0.5651478250022618,-0.2443841844797134,-0.6548928022384644,0.3503771126270294,-0.1370866298675537,-0.3122320175170898,-0.03378927707672119,2,0.6381778089453967,-0.5197488951244057,0.1555363209863053,0.5462586709128511,-0.7663543224334717,-0.5355406403541565,0.354819655418396,-21.68614196777344,-39.35711669921875,23.48480224609375,2
1596229849.339969,66,0,102181.543390875,1.403502929461821,-2.002406531582584,0.5601302437929734,0.2226010411977768,0.5280998349189758,-0.08251474052667618,-0.4313908815383911,-0.03276538848876953,-0.3033442497253418,2,0.636300940043973,-0.5218471104936248,0.1568020796962474,0.5460859192697416,-0.7694933414459229,-0.5312965512275696,0.3544065952301025,-21.80592346191406,-39.50888061523438,23.39498901367188,2
1596229849.370056,67,0,102181.573487875,1.421186833326904,-1.987343829248504,0.5658925649338014,0.4857879281044006,0.9316877722740173,-0.5520002245903015,-0.18781578540802,-0.06383776664733887,-0.230787992477417,2,0.6403618691235633,-0.5105903868980393,0.1644035049175935,0.5497322569612377,-0.7719314694404602,-0.5361694693565369,0.3415317237377167,-21.91755676269531,-39.09152984619141,23.3355712890625,2
1596229849.400485,68,0,102181.603584875,1.444596565974705,-1.968469596415316,0.5689541614822928,0.6205708384513855,1.24000346660614,-0.1060571298003197,0.1204150319099426,-0.05140984058380127,-0.0323944091796875,2,0.6450277658547593,-0.4970629945212679,0.175842965129811,0.5531245015382933,-0.7767226099967957,-0.5387512445449829,0.326264888048172,-21.96741485595703,-39.22920227050781,23.28143310546875,2
1596229849.430258,69,0,102181.633681875,1.475500462832106,-1.938435369919202,0.56487004908227,1.049752593040466,1.919243931770325,-0.4009261727333069,-0.1779803037643433,0.0008237957954406738,-0.01926374435424805,2,0.6492845139293594,-0.4798127526575605,0.1955614823915831,0.5567450226186741,-0.7882168292999268,-0.5353060364723206,0.3035813271999359,-22.85415649414062,-38.78152465820312,23.2783203125,2
1596229849.460485,70,0,102181.663779875,1.518906349910982,-1.892188377773658,0.5688133304683004,1.229570984840393,2.747397184371948,-0.673503577709198,-0.3011994957923889,0.04026687145233154,0.12400221824646,2,0.6550628636326908,-0.4516267319981562,0.2214559744497593,0.5638111453379554,-0.7993995547294617,-0.5386326313018799,0.2661481201648712,-23.46552276611328,-38.63008880615234,23.0567626953125,2
1596229849.490424,71,0,102181.693876875,1.578379810873268,-1.827278586806229,0.5803191555623883,1.764464259147644,3.703209161758423,-0.9610061645507812,-0.1691950559616089,0.04851341247558594,0.07577407360076904,2,0.6615804664378403,-0.4103483630323666,0.2558949841928661,0.5730996339797296,-0.8089312314987183,-0.5482908487319946,0.212148979306221,-25.02097320556641,-38.0081787109375,22.44766235351562,2
1596229849.520631,72,0,102181.723973875,1.65594153850883,-1.74399081337905,0.5957192655501136,2.15269660949707,4.594231128692627,-0.937824547290802,-0.06496161222457886,0.09555613994598389,0.2211757898330688,2,0.6667836207540165,-0.3559806314022738,0.300992189584344,0.5814472816978442,-0.8153612613677979,-0.5611042976379395,0.1426452100276947,-25.80724334716797,-37.66116333007812,21.99020385742188,2
1596229849.551345,73,0,102181.754070875,1.741713414315073,-1.654897305050673,0.6133499657883343,2.384742736816406,4.425019264221191,-0.9034860134124756,-0.315511167049408,0.1838799118995667,0.1625311374664307,2,0.6684459109424538,-0.2958466581977222,0.3503167705263877,0.5856046931210084,-0.8148339986801147,-0.5756100416183472,0.06869035959243774,-28.51513671875,-37.04722595214844,20.53128051757812,2
1596229849.580735,74,0,102181.784168875,1.839756229206536,-1.57196660596521,0.6491668069134992,2.729400396347046,4.947184562683105,-1.661782264709473,-0.4037503600120544,0.5592039227485657,0.4129447937011719,2,0.6700201692531914,-0.2270222186592434,0.3961201469660711,0.5853398818920064,-0.7965872883796692,-0.6045228838920593,0.0009322299156337976,-29.23223876953125,-36.63739013671875,20.04458618164062,2
1596229849.610764,75,0,102181.814265875,1.947536702171517,-1.476595575232537,0.7025451029858643,3.125517606735229,5.937670707702637,-1.482535481452942,-0.07632899284362793,0.5501012206077576,0.5724853277206421,2,0.6656885022589876,-0.1447927702675647,0.444124082683823,0.5819344263236248,-0.7598164081573486,-0.646162211894989,-0.07178774476051331,-30.92208099365234,-36.1575927734375,18.21536254882812,2
1596229849.641083,76,0,102181.844362875,2.073253033862411,-1.372675600192698,0.7597277791389581,3.508357524871826,6.358958721160889,-1.45942497253418,-0.1115413308143616,0.4039638638496399,0.6281013488769531,2,0.6525826271353508,-0.05276139217565956,0.4987126402497457,0.5680120950727012,-0.71084064245224,-0.6887241005897522,-0.1427042931318283,-31.63782501220703,-35.82432556152344,17.31735229492188,2
1596229849.671134,77,0,102181.874459875,2.207025508615357,-1.274953503000306,0.833444549347772,3.637708187103271,6.304983615875244,-1.779422760009766,0.1531145572662354,0.08887243270874023,0.7642799615859985,2,0.6324125542766623,0.04524137413378213,0.5475329030339247,0.5460907955762311,-0.6431215405464172,-0.7402516603469849,-0.1960151642560959,-33.30037689208984,-35.77162170410156,14.28570556640625,2
1596229849.701291,78,0,102181.904556875,2.329785719705484,-1.191532343726498,0.9152606454581852,3.102614402770996,5.4230637550354,-1.397933959960938,0.6348289251327515,0.02810811996459961,0.5612750649452209,2,0.6068976321694519,0.1372226158714931,0.5843197694914654,0.5209756069443223,-0.5662652850151062,-0.7927215099334717,-0.2256904393434525,-34.00429534912109,-36.29523468017578,11.45748901367188,2
1596229849.733753,79,0,102181.934655375,2.444651920216343,-1.13817878624005,0.9848423415732067,2.802958488464355,4.466007232666016,-1.33066737651825,0.3578368425369263,0.09213942289352417,0.1986890435218811,2,0.5822897552810373,0.2121733914540545,0.6107039795299398,0.4929115121057197,-0.5020479559898376,-0.8331848978996277,-0.2318421900272369,-34.06763458251953,-36.50373840332031,10.34136962890625,2
1596229849.761349,80,0,102181.964752375,2.533372807733869,-1.095648844273426,1.056907394991551,2.112206935882568,3.373469829559326,-1.454825043678284,0.3192546367645264,-0.2084921002388,0.00350487232208252,2,0.5580295812727956,0.275978980071599,0.6247474972516792,0.4713057231020326,-0.4371142089366913,-0.8708394169807434,-0.2248771786689758,-33.66494750976562,-37.32158660888672,8.93304443359375,2
1596229849.791376,81,0,102181.994849375,2.589848277292359,-1.0614162678453,1.112868746449068,1.199698090553284,1.8635413646698,-1.080135703086853,0.2568153738975525,-0.2902716994285583,-0.1105779409408569,2,0.5376133491762023,0.3212200970558377,0.6318356855159944,0.4566980895419241,-0.3859653770923615,-0.8969706296920776,-0.2155790776014328,-33.16151428222656,-37.72612762451172,8.4525146484375,2
1596229849.821695,82,0,102182.024946375,2.606343746940313,-1.057054617659632,1.154661761590045,0.4180670380592346,-0.2500390112400055,-0.9079867005348206,0.4416193962097168,-0.1987383961677551,-0.1334221363067627,2,0.5321267377648076,0.3428037682594605,0.6250501081945893,0.4567701516957121,-0.3520466983318329,-0.9146583080291748,-0.1986534297466278,-31.9058837890625,-38.56489562988281,8.3184814453125,2
1596229849.851582,83,0,102182.055043375,2.614720739455652,-1.082268635082464,1.173457176268358,0.4796171188354492,-0.7029877901077271,-0.3051998913288116,0.2748388648033142,-0.1459915041923523,-0.1659797430038452,2,0.5377307758385241,0.3464663350655182,0.6148896664093209,0.4612129337469714,-0.3417006731033325,-0.92209392786026,-0.1816133856773376,-31.50774383544922,-38.82733917236328,9.0057373046875,2
1596229849.884355,84,0,102182.085141375,2.626342413373629,-1.105846137299386,1.193120404880798,0.4546549618244171,0.1371210515499115,-0.7918443083763123,-0.3173344135284424,0.2843595743179321,-0.01294171810150146,2,0.5419359786737319,0.351615082109322,0.6055969623150642,0.4646767731618248,-0.3296148478984833,-0.9295241832733154,-0.1653444617986679,-30.56724548339844,-39.39598083496094,10.13076782226562,2
1596229849.911779,85,0,102182.115238375,2.620596150115432,-1.082307701559118,1.224797711853952,0.3269642293453217,0.6492776870727539,-0.948374330997467,-0.1651724576950073,-0.4009016156196594,-0.176716685295105,2,0.53419130919212,0.3675087835418976,0.601423388866219,0.4667620855298625,-0.2994719743728638,-0.940737247467041,-0.1591538786888123,-29.99104309082031,-39.70433044433594,10.37298583984375,2
1596229849.941968,86,0,102182.145335375,2.616607618556585,-1.077297037733752,1.244841391525337,0.4479779601097107,-0.3816723823547363,-0.2979393005371094,0.4506720304489136,-0.05989998579025269,-0.155824601650238,2,0.5323629673991861,0.3751605736386013,0.5959319992957187,0.4697969471755772,-0.2820056676864624,-0.9473453760147095,-0.151688426733017,-28.91062164306641,-40.43686676025391,10.60433959960938,2
1596229849.972004,87,0,102182.175432375,2.65249343707677,-1.122656551023547,1.260280076293072,0.5293049812316895,-0.3777685463428497,-0.3688357174396515,0.1023723483085632,0.05603349208831787,-0.06545579433441162,2,0.5380595287823939,0.3798633442949292,0.5876689842197963,0.469936984564975,-0.2753781378269196,-0.9521759748458862,-0.1323915719985962,-28.75193023681641,-40.49706268310547,10.93341064453125,2
1596229850.002172,88,0,102182.205530375,2.678817571489651,-1.159223879371473,1.276850008278697,0.424514502286911,-0.08021201193332672,-0.3280305564403534,-0.06755906343460083,-0.02807974815368652,0.2070540189743042,2,0.5424436040868288,0.3844493937125072,0.5791226244047727,0.4717737206112089,-0.2655364871025085,-0.9571079611778259,-0.1159071996808052,-27.92156219482422,-40.74974060058594,12.05325317382812,2
1596229850.033762,89,0,102182.235627375,2.710244982823361,-1.182088725888511,1.291317422507934,0.4392417371273041,0.2465885281562805,-0.4210997223854065,-0.07273894548416138,-0.04956835508346558,0.0128631591796875,2,0.5416768849206943,0.392826595188857,0.5760899333857779,0.4694610713641437,-0.2552756071090698,-0.9611993432044983,-0.1045468375086784,-27.66912841796875,-40.62796783447266,12.28558349609375,2
1596229850.062257,90,0,102182.265724375,2.728664768962461,-1.196557788549343,1.304819162376816,0.3148054778575897,-0.01449034921824932,-0.1905476152896881,0.3227677345275879,-0.02020227909088135,0.115925669670105,2,0.5408824947964349,0.3992511291120436,0.5725608573568257,0.469274730702806,-0.2446593642234802,-0.9648361206054688,-0.09608932584524155,-27.15141296386719,-40.90266418457031,12.9332275390625,2
1596229850.092411,91,0,102182.295821375,2.756249942738203,-1.22881934232776,1.308072373311091,0.1206351518630981,-0.3683630526065826,0.08536192029714584,0.1444670557975769,-0.0398329496383667,0.1382274627685547,2,0.5442366202632171,0.4003240459097914,0.5693327742905364,0.468409235927305,-0.2446725219488144,-0.9656861424446106,-0.08709432184696198,-27.16316223144531,-40.78610992431641,13.32540893554688,2
1596229850.122679,92,0,102182.325918375,2.761939610260126,-1.249265658429467,1.307908446548903,0.05234052613377571,-0.4622158706188202,-0.07002326846122742,-0.1105553507804871,0.07320678234100342,-0.04608511924743652,2,0.5489197387173068,0.3970203617740287,0.5651281633236716,0.4708418365970475,-0.2465524077415466,-0.9656435251235962,-0.08212390542030334,-26.84370422363281,-40.87010955810547,13.83932495117188,2
1596229850.152565,93,0,102182.356016375,2.771825979055647,-1.26975338793049,1.311766350655034,0.1121006086468697,-0.4156599044799805,-0.05254073441028595,0.167762890458107,0.05485260486602783,0.067546546459198,2,0.5522760639479175,0.39625238777903,0.5607192384186912,0.4728307612833488,-0.244622990489006,-0.9666389226913452,-0.07595039159059525,-26.31739807128906,-41.04241180419922,14.22454833984375,2
1596229850.182732,94,0,102182.386113375,2.780630832979975,-1.294802243848478,1.311883734475005,0.1171998381614685,-0.5979128479957581,0.0007528048008680344,-0.08415958285331726,-0.02760583162307739,0.02731585502624512,2,0.5575169972033993,0.3927981566778151,0.5558234061746302,0.4753363054225695,-0.2463395446538925,-0.966668963432312,-0.06976880878210068,-26.26480865478516,-41.01560974121094,14.58114624023438,2
1596229850.212749,95,0,102182.416210375,2.796030618094763,-1.319163594617537,1.317778838167012,0.133360356092453,-0.01009493786841631,-0.2135550528764725,-0.03458094596862793,-0.02667319774627686,0.06919825077056885,2,0.5604790767914367,0.3933184479908513,0.5510238059245645,0.4770078304090576,-0.2424426674842834,-0.9681614637374878,-0.06232760474085808,-26.10572814941406,-40.59812164306641,15.12124633789062,2
1596229850.242956,96,0,102182.446307375,2.813385292445056,-1.336622450052461,1.321696944239852,0.1759821027517319,-0.1113231480121613,-0.008559691719710827,0.07790178060531616,0.02390462160110474,-0.03723549842834473,2,0.5613341435379533,0.3953498203094172,0.5491720415513663,0.476458376280225,-0.2398025691509247,-0.9691348671913147,-0.05720499902963638,-25.89220428466797,-40.81475067138672,15.34890747070312,2
1596229850.272969,97,0,102182.476404375,2.830404790343167,-1.355822331795536,1.323310205124942,0.1766014993190765,-0.01564372703433037,-0.007252300623804331,0.03901562094688416,0.005111277103424072,0.02440011501312256,2,0.5630044131725849,0.3961029256871728,0.5473820280561529,0.475921720013024,-0.2393290251493454,-0.9695312976837158,-0.05225700512528419,-25.80569458007812,-41.02213287353516,15.80221557617188,2
1596229850.30323,98,0,102182.506502375,2.842579783921206,-1.367361771909112,1.322348755141943,0.001015897840261459,-0.003054737579077482,0.1011082082986832,0.1259391009807587,-0.00866234302520752,0.1067191958427429,2,0.5638888966466605,0.3964709644785474,0.5472875557911117,0.4746751389507498,-0.2408289313316345,-0.96929532289505,-0.04968017339706421,-25.80286407470703,-40.77819061279297,15.7083740234375,2
1596229850.333185,99,0,102182.536599375,2.852072000649882,-1.380800941166856,1.318427930739777,0.03612463176250458,-0.3209991753101349,0.1729414314031601,0.1184108257293701,0.0306817889213562,0.01857542991638184,2,0.5662662106651326,0.3946698264457572,0.5468049468539969,0.4739016006790489,-0.2452050000429153,-0.9683237671852112,-0.04715661332011223,-25.82730102539062,-40.67749786376953,15.74136352539062,2
1596229850.363406,100,0,102182.566696375,2.847461312923752,-1.388889887446118,1.312720042879025,-0.08757425844669342,-0.4732805192470551,0.1963439732789993,-0.02022239565849304,0.01643466949462891,0.08489805459976196,2,0.5702272710068969,0.3895580917300356,0.5449504271552967,0.4755148256353209,-0.2510098814964294,-0.9668827652931213,-0.04617070406675339,-25.88260650634766,-40.85287475585938,15.97036743164062,2
1596229850.393341,101,0,102182.596793375,2.839933865000425,-1.394983089347213,1.308684109120183,-0.1439065635204315,-0.3023630678653717,0.0414883978664875,-0.1649763286113739,-0.004850447177886963,0.08754813671112061,2,0.5739382328370979,0.3846213956709477,0.5424989279748788,0.477866250807038,-0.2551265954971313,-0.9658448100090027,-0.04532257467508316,-26.06502532958984,-40.50820922851562,16.19415283203125,2
1596229850.423945,102,0,102182.626890375,2.827358705685515,-1.38733533563833,1.306522340845252,-0.07025551050901413,-0.1138295158743858,0.1036890596151352,-0.05236944556236267,-0.002994537353515625,0.01083922386169434,2,0.5745899995523233,0.3821252622772981,0.5422688009264633,0.4793445597699063,-0.2568251192569733,-0.9652823805809021,-0.04765323176980019,-25.91013336181641,-40.50540924072266,16.37966918945312,2
1596229850.453584,103,0,102182.656987375,2.818191353263716,-1.380505436525778,1.304394560811502,-0.1874054819345474,0.0639626681804657,-0.01176554523408413,-0.04849600791931152,0.08094304800033569,0.08370327949523926,2,0.5747889780557019,0.380421351449637,0.5426089861654612,0.4800756022983594,-0.2585093080997467,-0.9647244215011597,-0.04979445040225983,-25.98909759521484,-40.52675628662109,16.3211669921875,2
1596229850.48375,104,0,102182.687085375,2.796210595961932,-1.356041635883934,1.303470647875741,-0.1966889053583145,0.1724868416786194,-0.04460623860359192,-0.1549745500087738,-0.06333160400390625,-0.02082550525665283,2,0.572443864013826,0.379686048709227,0.5445960802731895,0.4812085005107383,-0.2580850720405579,-0.9644807577133179,-0.0562930554151535,-25.98787689208984,-40.66854095458984,16.16607666015625,2
1596229850.51379,105,0,102182.717182375,2.770831126960883,-1.329435415797023,1.30432651379789,-0.1734660565853119,-0.01600560359656811,-0.07160594314336777,0.1030544340610504,0.01317590475082397,-0.04698598384857178,2,0.5698938266165083,0.3791441513939307,0.545836917356641,0.4832520774208813,-0.255693793296814,-0.9647064805030823,-0.06294147670269012,-25.91530609130859,-40.61229705810547,15.85641479492188,2
1596229850.543915,106,0,102182.747279375,2.755886692759382,-1.313759243173289,1.30235220937178,-0.1170555055141449,0.02239930629730225,0.1193347126245499,0.1392746865749359,0.002911686897277832,-0.06413888931274414,2,0.5686831996267183,0.3780031273451409,0.5472405888062556,0.4839842506891537,-0.2565179467201233,-0.9641847610473633,-0.06742610782384872,-25.91785430908203,-40.93698883056641,15.53515625,2
1596229850.57393,107,0,102182.777376375,2.750838917347755,-1.308768085888917,1.298431038464137,0.01190449856221676,0.02076857164502144,0.1030427291989326,0.04385888576507568,0.01669687032699585,-0.02257406711578369,2,0.5687392887337254,0.3764218420998249,0.5485453820739457,0.4836736170306331,-0.2598280012607574,-0.9631373286247253,-0.06968443840742111,-26.27056884765625,-40.83628845214844,15.33953857421875,2
1596229850.604395,108,0,102182.807473375,2.754967337854705,-1.311141265526341,1.294514170885998,-0.05307155847549438,-0.03186482936143875,0.1853680014610291,0.042408287525177,-0.004108250141143799,-0.02156180143356323,2,0.5690824197317866,0.3756692574267,0.5499709031230219,0.4822341198229202,-0.2636364698410034,-0.9620762467384338,-0.07003561407327652,-26.16172790527344,-40.8685302734375,15.28359985351562,2
1596229850.634152,109,0,102182.837571375,2.756550894070294,-1.311771978782678,1.289266608860875,-0.03492016345262527,0.1092901229858398,0.1127128973603249,-0.02183371782302856,0.03612995147705078,-0.0426374077796936,2,0.5695860405535838,0.3741536242361286,0.5516464928940489,0.4809023216862104,-0.2685575783252716,-0.9606315493583679,-0.07116161286830902,-26.29096984863281,-40.83451843261719,15.21240234375,2
1596229850.664698,110,0,102182.867668375,2.757877608742687,-1.311058078298397,1.285614487118777,-0.0001692809164524078,0.02251790463924408,0.2062824964523315,0.08541527390480042,-0.001297235488891602,-0.002650916576385498,2,0.5695756876137165,0.3734389179663105,0.5531910626962578,0.4796942525210294,-0.2718953490257263,-0.9596105217933655,-0.07225382328033447,-26.81266021728516,-40.42644500732422,15.20236206054688,2
1596229850.694302,111,0,102182.897765375,2.760212635914046,-1.314100548558243,1.279059909960385,-0.05940481275320053,-0.0211835503578186,0.1930318921804428,0.001479029655456543,0.005220949649810791,0.03085684776306152,2,0.5707624628292871,0.3711057194743949,0.5547121109189463,0.4783357879997148,-0.2781914174556732,-0.9577459096908569,-0.07302150875329971,-26.75141906738281,-40.4146728515625,14.91940307617188,2
1596229850.724954,112,0,102182.9278627917,2.757995721042271,-1.310681955043497,1.27350860626922,-0.05422071367502213,0.1104948297142982,0.1446119248867035,-0.07233917713165283,0.02786493301391602,-0.001066684722900391,2,0.5708776249396108,0.3693637389630933,0.5567028384092032,0.4772325976812849,-0.2830735445022583,-0.9561344981193542,-0.07533833384513855,-27.21035766601562,-40.45406341552734,15.061279296875,2
1596229850.754597,113,0,102182.9579597917,2.758425924591504,-1.30598164887256,1.270373372611688,0.0497015193104744,0.1838723421096802,0.08462362736463547,-0.01119214296340942,0.01247996091842651,-0.03041917085647583,2,0.5698526266170592,0.3695157361089165,0.5590172499488427,0.4756318086701885,-0.2856080234050751,-0.9552114009857178,-0.07745221257209778,-27.39115905761719,-40.20189666748047,15.02078247070312,2
1596229850.785111,114,0,102182.9880577917,2.766072183797245,-1.310912925930278,1.267664101817012,-0.05737531557679176,-0.08190105855464935,0.1861187964677811,0.1233477294445038,-0.01320821046829224,-0.04167139530181885,2,0.5701362414842631,0.3695819109772997,0.5601781919953517,0.4738715730200538,-0.288487046957016,-0.9544061422348022,-0.07670775800943375,-27.55535888671875,-40.21975708007812,14.8724365234375,2
1596229850.814723,115,0,102183.0181547917,2.764268103021672,-1.305922220901921,1.258737445185172,-0.09836863726377487,0.1713162064552307,0.3413399755954742,0.02242100238800049,-0.02385127544403076,0.1554948091506958,2,0.5701068760404432,0.3671393012994436,0.5636388423311433,0.4716971092015776,-0.2963116765022278,-0.9517034888267517,-0.08037376403808594,-27.62047576904297,-40.03707122802734,14.92095947265625,2
1596229850.845207,116,0,102183.0482517917,2.764696366015037,-1.306480248256409,1.252931256850566,-0.05144729092717171,-0.1052140071988106,0.07475904375314713,-0.01781821250915527,0.06430691480636597,0.05286133289337158,2,0.5708541746571536,0.3651029876460934,0.5651785894397992,0.4705300168048987,-0.3016852736473083,-0.9499048590660095,-0.08165063709020615,-28.23981475830078,-39.90042877197266,14.7044677734375,2
1596229850.874991,117,0,102183.0783487917,2.759129067056848,-1.307825634338254,1.249527146383183,-0.08802705258131027,-0.2411616444587708,0.113587498664856,-0.01829877495765686,-0.02933663129806519,0.01472693681716919,2,0.5726345711505463,0.3620045804719616,0.5644177265693848,0.4716723670986983,-0.3049151003360748,-0.9488354325294495,-0.08208466321229935,-28.28280639648438,-39.86539459228516,14.71072387695312,2
1596229850.905469,118,0,102183.1084457917,2.756006760772141,-1.310956914615522,1.247050589693491,-0.04217773675918579,-0.1365160793066025,0.04013305529952049,-0.05571705102920532,0.04317140579223633,-0.01349222660064697,2,0.5743611324141946,0.3595035061836651,0.5634631221923093,0.4726264638713464,-0.3074409067630768,-0.9480504989624023,-0.08173304051160812,-28.41336059570312,-39.79545593261719,14.82650756835938,2
1596229850.935108,119,0,102183.1385427917,2.756915837783367,-1.307626080356693,1.248822782720143,-0.07175514101982117,0.148631289601326,-0.06044863536953926,-0.1632602512836456,0.02408784627914429,0.006282448768615723,2,0.5730581483493722,0.3611711621701724,0.564146609764433,0.47212118624403,-0.3055444955825806,-0.9486127495765686,-0.08231949806213379,-28.20616149902344,-39.74665069580078,14.61080932617188,2
1596229850.965574,120,0,102183.1686407917,2.751642931585197,-1.296528966833793,1.248818528867545,-0.03607553243637085,0.2755090892314911,0.03783354163169861,0.03001248836517334,0.0002064704895019531,0.01662659645080566,2,0.5708767378969888,0.3622799138661372,0.5660771434509108,0.4716032547444958,-0.3046157658100128,-0.9486114382743835,-0.08570602536201477,-28.35183715820312,-39.80361938476562,14.60235595703125,2
1596229850.995369,121,0,102183.1987377917,2.749634555194369,-1.288951379828468,1.246424955958516,-0.03543467819690704,0.04060066491365433,0.06720655411481857,0.04713380336761475,0.0259711742401123,-0.01608729362487793,2,0.5693539425593337,0.3626494132861382,0.5684251701225169,0.4703341077092914,-0.3061374425888062,-0.9478512406349182,-0.08864298462867737,-28.35995483398438,-39.82470703125,14.41171264648438,2
1596229851.025885,122,0,102183.2288347917,2.746393363610538,-1.285597605731165,1.244996731328817,-0.04042679071426392,0.1089339405298233,0.0100902458652854,-0.08164417743682861,0.01545381546020508,0.007341265678405762,2,0.5691419114076041,0.3620117350561586,0.5690123327611897,0.4703719856233282,-0.3071371614933014,-0.9473950862884521,-0.09004997462034225,-28.65087890625,-39.9532470703125,14.32760620117188,2
1596229851.055429,123,0,102183.2589317917,2.746070664651732,-1.27721415295389,1.246162911315813,0.01608186215162277,0.3981316089630127,-0.04671899974346161,-0.01754316687583923,0.02759569883346558,0.01755833625793457,2,0.566686416549931,0.3643013624178953,0.5709944812031384,0.4691656319930316,-0.3053142726421356,-0.9477677345275879,-0.09230204671621323,-28.59053802490234,-39.67910766601562,14.32696533203125,2
1596229851.086002,124,0,102183.2890287917,2.751446838100373,-1.268105833396456,1.241755312406421,0.03622645139694214,0.2866783440113068,0.2067452967166901,0.2475011050701141,-0.02474188804626465,-0.04643571376800537,2,0.5635596600930408,0.366386195972296,0.5760443512473562,0.4651178047864169,-0.3084452450275421,-0.9463526606559753,-0.09632332623004913,-28.81043243408203,-39.53511810302734,13.72991943359375,2
1596229851.115566,125,0,102183.3191267917,2.753791747652895,-1.262505707443225,1.238719055740382,0.01982147246599197,0.3302217721939087,0.08464968204498291,-0.07805162668228149,0.04798996448516846,0.04106557369232178,2,0.5618317307559408,0.3672667609672858,0.5790030037053103,0.4628343627685623,-0.3106371760368347,-0.945367157459259,-0.09892046451568604,-29.29900360107422,-39.57805633544922,13.47634887695312,2
1596229851.146157,126,0,102183.3492237917,2.757684059991698,-1.254290964339162,1.235535797385443,-0.07873217761516571,0.3606129288673401,0.07978431135416031,0.02218598127365112,-0.04135400056838989,-0.004536449909210205,2,0.5590606566306762,0.369118740916878,0.5830812861734762,0.4595853393016704,-0.31267249584198,-0.9443246126174927,-0.1024050712585449,-29.44109344482422,-39.44052124023438,13.2562255859375,2
1596229851.175875,127,0,102183.3793207917,2.754449858554668,-1.245842421260793,1.233504912461541,0.006149778142571449,0.02288679778575897,0.1120460405945778,0.03568154573440552,0.03241455554962158,-0.0254892110824585,2,0.5573990147098414,0.3694304213826231,0.5852574739508978,0.4585858968391744,-0.3136127293109894,-0.943654477596283,-0.1056550070643425,-29.53165435791016,-39.14839172363281,12.9224853515625,2
1596229851.206076,128,0,102183.4094177917,2.754251217254537,-1.246771230753136,1.230074111370569,-0.04454633221030235,-0.09114449471235275,0.05483758822083473,-0.03722137212753296,0.01441216468811035,-0.03047710657119751,2,0.558056309200198,0.3679350060699845,0.5859001333622227,0.4581681305980034,-0.3167783319950104,-0.9425135850906372,-0.1063939705491066,-29.73152160644531,-39.35202789306641,12.81869506835938,2
1596229851.236077,129,0,102183.4395147917,2.752859671655261,-1.245254000621066,1.228695463778654,-0.02260836400091648,0.08280511945486069,0.04214325919747353,-0.02100181579589844,0.01589775085449219,-0.02038377523422241,2,0.5580069059733741,0.3674009028654738,0.586384477427596,0.4580369853175539,-0.3178467750549316,-0.9420519471168518,-0.1072897389531136,-29.77142333984375,-39.24172973632812,12.8260498046875,2
1596229851.266572,130,0,102183.4696127917,2.75401102489141,-1.244431458779123,1.228466848647276,0.01722134090960026,-0.0198308527469635,-0.02900027856230736,-0.01404842734336853,0.01520967483520508,-0.03384274244308472,2,0.5575770470377548,0.3678283401867985,0.5869406388271623,0.4575048938965074,-0.3179627358913422,-0.9419752359390259,-0.1076202988624573,-29.83911895751953,-39.32171630859375,12.66726684570312,2
1596229851.296299,131,0,102183.4997097917,2.754550314714155,-1.244570395009443,1.229674827498426,0.01756080240011215,0.07635537534952164,-0.01143454480916262,0.02144935727119446,0.009653806686401367,0.01795828342437744,2,0.5573965411564428,0.3683794686762096,0.5866921412674726,0.4576000665308274,-0.3168993890285492,-0.9423800706863403,-0.1072113290429115,-29.74150848388672,-39.25931549072266,12.83609008789062,2
1596229851.32688,132,0,102183.5298067917,2.753240195972207,-1.24147500963738,1.229223267127297,-0.05168653652071953,0.0105383163318038,-0.001471069641411304,0.04163098335266113,-0.01085495948791504,0.06346434354782104,2,0.5567748629608508,0.368560730708717,0.5873794906139883,0.4573292631992755,-0.3169690668582916,-0.9422289133071899,-0.1083294823765755,-29.74241638183594,-39.3553466796875,12.64935302734375,2
1596229851.356432,133,0,102183.5599037917,2.749935150635089,-1.238972727730099,1.228692211954933,-0.01465625315904617,-0.01349022146314383,0.01016967836767435,0.03319793939590454,0.03083479404449463,0.01136273145675659,2,0.5567015933792164,0.3680227397868667,0.587466470231404,0.457739703123799,-0.3171698153018951,-0.9420508742332458,-0.1092851981520653,-29.85634613037109,-39.28044891357422,12.8172607421875,2
1596229851.386641,134,0,102183.5900007917,2.749480332823412,-1.238887353265687,1.228208587813451,-0.02509186789393425,-0.05190194398164749,0.01279705762863159,0.004938602447509766,0.009292721748352051,-0.01920580863952637,2,0.5568082114586328,0.3677420682067816,0.5875198744454084,0.4577671220037346,-0.3175913393497467,-0.9418885111808777,-0.1094607710838318,-29.70989990234375,-39.26181030273438,12.66122436523438,2
1596229851.41667,135,0,102183.6200977917,2.747424035738811,-1.240099847071993,1.227832155603179,-0.03916612267494202,-0.1215730160474777,0.001647296594455838,-0.01855942606925964,0.002740383148193359,-0.01482546329498291,2,0.5575790905889279,0.3667563988581094,0.5868148200939731,0.4585231410949154,-0.3180587589740753,-0.9417620301246643,-0.1091906055808067,-29.73420715332031,-39.25366973876953,12.73583984375,2
1596229851.446885,136,0,102183.6501957917,2.745689333968264,-1.241700467689409,1.227369915003212,-0.007664925418794155,-0.08744873851537704,0.02025733888149261,-0.001714408397674561,0.01886355876922607,-0.002869546413421631,2,0.558411822453613,0.3657391965001425,0.5860981890514634,0.4592384038657773,-0.3186453580856323,-0.9416064620018005,-0.1088221520185471,-29.65562438964844,-39.36297607421875,12.72714233398438,2
1596229851.476841,137,0,102183.6802927917,2.746302839354805,-1.244091406008728,1.226669580482119,-0.01002272311598063,-0.004088837653398514,0.01551911607384682,-0.001199960708618164,0.007333278656005859,-0.001901984214782715,2,0.5590695323242032,0.3651101765785273,0.5857646885086998,0.459364263153861,-0.3195292353630066,-0.94137042760849,-0.108271636068821,-29.79757690429688,-39.28064727783203,12.85980224609375,2
1596229851.507038,138,0,102183.7103897917,2.7448091896465,-1.241022079400592,1.225745585653464,-0.01890213415026665,0.07644113153219223,0.03734524548053741,-0.002032220363616943,0.009779036045074463,0.02282929420471191,2,0.558533925344168,0.3650659802983349,0.586534288562515,0.4590686774561601,-0.3200178742408752,-0.9410582780838013,-0.1095333695411682,-29.78498077392578,-39.43313598632812,12.72900390625,2
1596229851.537049,139,0,102183.7404867917,2.747452483163238,-1.24467068955086,1.225082961500854,-0.01254481542855501,-0.1587944626808167,0.0264921635389328,0.01013869047164917,0.0193171501159668,-0.003573179244995117,2,0.5591869366297888,0.3647294129266381,0.5863043661612939,0.4588349863490979,-0.3210062682628632,-0.9408339262008667,-0.1085648536682129,-29.78587341308594,-39.01455688476562,12.88986206054688,2
1596229851.567133,140,0,102183.7705837917,2.748628025126053,-1.249336989301981,1.225136017630656,0.01592295989394188,-0.08118297159671783,-0.01348107494413853,0.02985715866088867,0.001207947731018066,0.02075529098510742,2,0.5603341930661087,0.3640063078216266,0.5852535974922732,0.4593508098777001,-0.3214620053768158,-0.9408519268035889,-0.1070500016212463,-29.77175903320312,-39.32914733886719,12.96328735351562,2
1596229851.597203,141,0,102183.8006807917,2.745834859588012,-1.249218048901029,1.225062117902907,-0.05978121235966682,-0.05161959677934647,0.01658143475651741,0.01237869262695312,0.008644521236419678,0.008196711540222168,2,0.5608146093359571,0.3632243331687527,0.5846650526642201,0.4601322216096027,-0.3215149641036987,-0.9408268928527832,-0.1071101129055023,-29.72785949707031,-39.249755859375,12.98394775390625,2
1596229851.62756,142,0,102183.8307787917,2.737023513120943,-1.236688250325439,1.222440239471259,-0.1601521968841553,0.2622000873088837,0.08565470576286316,0.01481866836547852,0.001057624816894531,0.04215788841247559,2,0.5590001906287109,0.3626974188910375,0.5868703923150846,0.4599483085434384,-0.3224771916866302,-0.9399351477622986,-0.1119387373328209,-29.92807006835938,-39.18109893798828,12.564453125,2
