loggingTime,loggingSample,identifierForVendor,motionTimestamp_sinceReboot,motionYaw,motionRoll,motionPitch,motionRotationRateX,motionRotationRateY,motionRotationRateZ,motionUserAccelerationX,motionUserAccelerationY,motionUserAccelerationZ,motionAttitudeReferenceFrame,motionQuaternionX,motionQuaternionY,motionQuaternionZ,motionQuaternionW,motionGravityX,motionGravityY,motionGravityZ,motionMagneticFieldX,motionMagneticFieldY,motionMagneticFieldZ,motionMagneticFieldCalibrationAccuracy
1596229537.216696,1,0,101869.4039827917,-0.4147279309288354,0.6516011150120047,1.285764364014366,-0.06958878040313721,-0.02203543484210968,-0.06752961128950119,-0.02269303798675537,-0.02876484394073486,0.03048241138458252,2,0.6085411836371571,0.13375091909792,0.03165826152516521,0.7815280608915743,0.1705294847488403,-0.9596526622772217,-0.2235766351222992,-5.487228393554688,-48.76335144042969,6.674896240234375,2
1596229537.245268,2,0,101869.4340777917,-0.4168293433295718,0.6525596205202645,1.284009289023076,0.01647558435797691,-0.05098430812358856,-0.03229032456874847,0.03118383884429932,0.0390629768371582,-0.01894170045852661,2,0.6080503223680966,0.1337885659962531,0.03080545524144351,0.7819376219813847,0.1717660874128342,-0.9591577053070068,-0.2247508466243744,-5.684005737304688,-48.77445220947266,6.549407958984375,2
1596229537.271481,3,0,101869.4641727917,-0.4217391135500366,0.655787871814518,1.284314114806818,0.01130629517138004,-0.009742788970470428,-0.0153408395126462,0.03157627582550049,0.006801843643188477,-0.03893524408340454,2,0.6084363723032962,0.1335046251864009,0.0299242964322643,0.7817200310859829,0.1723124235868454,-0.9592438340187073,-0.2239633947610855,-5.51239013671875,-48.84049224853516,6.628662109375,2
1596229537.311045,4,0,101869.4942677917,-0.4211576048131337,0.6576190555633126,1.283396116404501,-0.04416386783123016,0.1588803231716156,-0.02742948196828365,-0.05941131711006165,0.007362604141235352,0.02410340309143066,2,0.6080479054110521,0.1345567256461846,0.03053810984896965,0.781818198337894,0.1732605248689651,-0.9589840769767761,-0.2243444621562958,-5.642349243164062,-49.13930511474609,6.53936767578125,2
1596229537.33918,5,0,101869.5243627917,-0.4238452315197881,0.6656842912672949,1.281763880875605,-0.02055000141263008,0.2077731341123581,-0.08339083194732666,-0.06282863020896912,0.01615476608276367,-0.004759371280670166,2,0.6075336249377986,0.1371772966691288,0.03163402638712182,0.7817190043010253,0.1760307252407074,-0.9585201144218445,-0.2241705656051636,-5.683784484863281,-48.92696380615234,6.60260009765625,2
1596229537.373015,6,0,101869.5544577917,-0.4252325076671957,0.673855213813714,1.279060568387331,-0.1195645481348038,0.2777277827262878,0.02870135195553303,-0.003801316022872925,-0.008601069450378418,-0.0477372407913208,2,0.6065527652767442,0.1404252962584032,0.03306280896172759,0.7818449053954033,0.1794729232788086,-0.9577460885047913,-0.2247489541769028,-5.411567687988281,-49.04243469238281,6.26611328125,2
1596229537.407111,7,0,101869.5845517917,-0.410195814491187,0.6665491349840268,1.278127048798692,0.03021343052387238,0.2016482353210449,0.03616164997220039,0.01773908734321594,0.02690839767456055,-0.04420775175094604,2,0.6052902136966296,0.1422867262660213,0.03655443764837246,0.7823311303534671,0.1783785820007324,-0.9574771523475647,-0.2267564833164215,-5.494255065917969,-49.00148773193359,6.2315673828125,2
1596229537.439552,8,0,101869.644741875,-0.4122836220408181,0.6576784579872267,1.285516997268301,0.1124773100018501,-0.2310186326503754,0.2670482993125916,-0.06225410103797913,-0.01740586757659912,-0.003813862800598145,2,0.6081884510561552,0.1369112518296199,0.03441616200020492,0.7811387723218149,0.1720303446054459,-0.9595831036567688,-0.2227242290973663,-5.50982666015625,-49.00818634033203,6.396331787109375,2
1596229537.492553,9,0,101869.674836875,-0.4172845828428471,0.6632045111384817,1.288921059360252,0.06175440549850464,0.1744493097066879,-0.236269935965538,-0.1360600590705872,0.06252318620681763,-0.02667707204818726,2,0.6096274286389322,0.1369561269396514,0.03477776555028494,0.7799923422131358,0.1712464988231659,-0.9605355262756348,-0.2191948294639587,-5.750259399414062,-49.01222991943359,6.58966064453125,2
1596229537.507471,10,0,101869.704931875,-0.440539828569869,0.6907764018615032,1.286546575075425,0.103381521999836,0.09304174035787582,-0.09568855911493301,-0.01547613739967346,0.00292205810546875,0.003636538982391357,2,0.6099471707615528,0.1410342508440368,0.03366898888899461,0.7790636671144662,0.1786767095327377,-0.959872305393219,-0.2161475718021393,-5.594818115234375,-49.05078887939453,6.596588134765625,2
1596229537.549985,11,0,101869.735026875,-0.4496837939958033,0.6966949309166849,1.28769052052006,0.08880005776882172,-0.2085552364587784,-0.08502738177776337,-0.03200069069862366,0.0180930495262146,-0.06411856412887573,2,0.6108869242863265,0.1403393179451658,0.03213767961831532,0.7785173487189863,0.1792482137680054,-0.9601925015449524,-0.214244082570076,-5.467269897460938,-48.82283782958984,6.8101806640625,2
1596229537.575059,12,0,101869.765121875,-0.4719256185544167,0.7143723299140821,1.287464090691863,0.1847514659166336,0.03617902845144272,-0.2741034626960754,-0.08696407079696655,0.04784464836120605,-0.07259809970855713,2,0.6121014529817465,0.1404586028850303,0.02884430068905625,0.7776703984923136,0.1831497251987457,-0.9601292014122009,-0.211206391453743,-5.529151916503906,-49.02783203125,7.1419677734375,2
1596229537.612415,13,0,101869.795216875,-0.5130721780504482,0.7546330325350429,1.287308141322424,0.2899553179740906,-0.03890417516231537,-0.2985778152942657,-0.05233410000801086,0.01049286127090454,-0.1238928437232971,2,0.6144265832670027,0.143504703613145,0.02518070049883048,0.7754046958154168,0.1916050612926483,-0.9600856304168701,-0.2037727534770966,-4.669349670410156,-48.91911315917969,7.252838134765625,2
1596229537.642871,14,0,101869.825311875,-0.5546929474546255,0.7920030438399986,1.285495192254428,0.2096996754407883,-0.1624621152877808,-0.3430887460708618,-0.03477022051811218,0.02575552463531494,-0.03607374429702759,2,0.6164168696547034,0.1455444559684899,0.02016515958575876,0.7735893804286562,0.2003230005502701,-0.9595769643783569,-0.1976941078901291,-4.191116333007812,-48.79322052001953,7.7406005859375,2
1596229537.677723,15,0,101869.855406875,-0.6063140954636556,0.835569641730312,1.283552095514074,0.394880086183548,-0.1378762722015381,-0.4275995790958405,-0.07993540167808533,0.07500410079956055,-0.1047351360321045,2,0.6192083156542629,0.1468502616015713,0.01323768746285819,0.7712592953427222,0.2101254910230637,-0.9590282440185547,-0.1900321245193481,-3.664741516113281,-48.87996673583984,8.23797607421875,2
1596229537.733027,16,0,101869.915596875,-0.7281836050233811,0.9627906877691966,1.275017803060958,0.5043789148330688,0.6203075647354126,-0.4150168001651764,-0.08094099164009094,0.09584963321685791,0.0773429274559021,2,0.625463786907797,0.1598196026427722,0.003885741835424394,0.7637000647171542,0.2392476946115494,-0.9565755128860474,-0.1665054857730865,-2.591781616210938,-48.88980865478516,9.18927001953125,2
1596229537.745402,17,0,101869.945691875,-0.7971266463351709,1.049439111576282,1.276115234678177,0.5287653803825378,0.5428435206413269,-0.2020638287067413,0.2254585027694702,0.03107893466949463,-0.1794335246086121,2,0.6312684990085249,0.1708021769383637,0.005208790769773819,0.7565049331543513,0.2518490850925446,-0.9568948149681091,-0.144653394818306,-2.283485412597656,-48.52680969238281,10.17410278320312,2
1596229537.792987,18,0,101869.975786875,-0.8529749971814057,1.112081812766805,1.281757500240672,0.694496750831604,0.2523632645606995,-0.05675389617681503,0.1762517690658569,-0.1106019020080566,-0.0872504711151123,2,0.6373606615225946,0.1751169786618707,0.00568240678916504,0.7503821371835901,0.2555658221244812,-0.9585182666778564,-0.1262108683586121,-1.770668029785156,-48.49006652832031,10.4061279296875,2
1596229537.813208,19,0,101870.005881875,-0.9140740520320018,1.179479940175804,1.28597315387338,0.4627831876277924,0.3550836741924286,-0.1015682816505432,0.06114381551742554,0.09542602300643921,0.061409592628479,2,0.64357766870457,0.1795063207674613,0.005719310712807735,0.7440112480793899,0.2597478032112122,-0.9597113728523254,-0.1071705296635628,-1.771820068359375,-48.13813781738281,11.69314575195312,2
1596229537.848738,20,0,101870.035976875,-0.9686466431044956,1.242901864770423,1.293676601993675,0.5640695691108704,0.3076416552066803,0.210257962346077,0.07270890474319458,0.01501035690307617,-0.03877741098403931,2,0.6499591212098642,0.1830266808427791,0.008441015891581582,0.7375522071717898,0.2590108215808868,-0.9618474245071411,-0.08810874819755554,-2.034111022949219,-48.11214447021484,12.259765625,2
1596229537.88092,21,0,101870.066071875,-1.018065850460043,1.302756012905841,1.302272084850266,0.5015419721603394,0.6508815884590149,-0.04916669428348541,-0.1151132583618164,-0.06052350997924805,0.301311194896698,2,0.6558929164800378,0.1862041931851456,0.01261746159615973,0.7314186547749327,0.2558350265026093,-0.9641634821891785,-0.07026495784521103,-2.363533020019531,-47.76766204833984,13.07208251953125,2
1596229537.913599,22,0,101870.096166875,-1.064408849163416,1.374885989550088,1.299277339524824,0.2214751243591309,1.143668174743652,-0.1850777268409729,-0.1218746900558472,-0.001945734024047852,0.3440942168235779,2,0.6592563410053097,0.198185965736357,0.0184618540694757,0.7250949310445942,0.2630650997161865,-0.9633646011352539,-0.05220679938793182,-2.460777282714844,-47.70443725585938,13.57199096679688,2
1596229537.948509,23,0,101870.126261875,-1.078434677479204,1.424646614165466,1.299479217362083,0.1068132072687149,1.150186061859131,0.08147121220827103,-0.07954764366149902,-0.0007159709930419922,0.146918773651123,2,0.6601244221501147,0.2114739884153362,0.02987600541655666,0.7201541997710343,0.2651439905166626,-0.96341872215271,-0.03902899846434593,-2.945686340332031,-47.66691589355469,14.01446533203125,2
1596229537.981238,24,0,101870.186450875,-1.107869761383411,1.492078228075592,1.285801430718797,0.2176451534032822,0.3397230505943298,-0.4142239391803741,0.1091538071632385,-0.007756292819976807,-0.2143726944923401,2,0.6601993634062697,0.2303960110180379,0.03687578442207418,0.713929058882648,0.2802820801734924,-0.9596630930900574,-0.02210895717144012,-3.228034973144531,-47.5574951171875,14.00686645507812,2
1596229538.031367,25,0,101870.216545875,-1.131052700685759,1.51846488499119,1.279148280785298,0.1749012917280197,-0.06575562059879303,-0.06190772727131844,0.01765808463096619,0.08822757005691528,-0.1492854952812195,2,0.6614920121719853,0.2343251763798809,0.03501733378702893,0.7115433057596829,0.2871376574039459,-0.9577713012695312,-0.01504005864262581,-2.935531616210938,-47.70943450927734,14.08367919921875,2
1596229538.049193,26,0,101870.246640875,-1.162008124338006,1.548425815498386,1.275932982882564,0.3059781193733215,-0.006418080534785986,-0.2549384534358978,0.004509270191192627,0.001913070678710938,-0.01688659191131592,2,0.6642017405449596,0.2357663653059673,0.03282959381719469,0.7086413504181629,0.290536642074585,-0.9568418860435486,-0.006500537507236004,-2.50152587890625,-47.62584686279297,14.754638671875,2
1596229538.09161,27,0,101870.276735875,-1.182186324013825,1.566886815359338,1.267177156913414,0.1951104998588562,0.0329439640045166,-0.2046902924776077,0.04762667417526245,-0.04364079236984253,-0.006938338279724121,2,0.665231318021987,0.238501300255984,0.02873941809947872,0.7069359892561373,0.2989735901355743,-0.9542607069015503,-0.001168846618384123,-2.093162536621094,-47.09266662597656,15.11410522460938,2
1596229538.116702,28,0,101870.306830875,-1.196621875638597,1.580118496383519,1.26470709843181,0.09815498441457748,-0.03838326036930084,-0.09402415156364441,-0.1176218390464783,0.04264390468597412,0.06442475318908691,2,0.666477721792572,0.2391902150184586,0.02717396595086874,0.7055898304529624,0.3013186752796173,-0.9535192847251892,0.002809025114402175,-1.9149169921875,-47.07472991943359,15.12826538085938,2
1596229538.152441,29,0,101870.336925875,-1.208545522620537,1.590760304926305,1.257298314119028,0.0734994113445282,-0.02954130433499813,-0.3136086761951447,0.03489923477172852,0.01787900924682617,-0.05055439472198486,2,0.666922664675191,0.2414379463202554,0.02389326762398708,0.7045218385218656,0.3083266913890839,-0.9512606263160706,0.006156245246529579,-1.524238586425781,-47.23830413818359,15.32711791992188,2
1596229538.184519,30,0,101870.367020875,-1.211305602871655,1.595859617025957,1.251195390992881,0.0930921882390976,0.1471899300813675,-0.09463696926832199,0.04328149557113647,-0.03519320487976074,0.1152160167694092,2,0.6665061773905376,0.2443489147303944,0.022456206279658,0.703959398511896,0.3140890300273895,-0.9493608474731445,0.00787375308573246,-1.271286010742188,-46.97740173339844,15.40057373046875,2
1596229538.219433,31,0,101870.397115875,-1.214459702767672,1.600865893874065,1.248029765193321,-0.02013206481933594,0.04244910180568695,-0.1575779914855957,0.003524720668792725,0.03584599494934082,0.05501413345336914,2,0.6664800919413872,0.2461147606753431,0.0218906909738823,0.7033865570515392,0.3170482218265533,-0.9483615159988403,0.009536377154290676,-0.9749069213867188,-47.00456237792969,15.69528198242188,2
1596229538.272276,32,0,101870.457305875,-1.195718719963668,1.589072322819768,1.244784475697936,-0.2360009700059891,0.06708013266324997,0.03441588953137398,0.04589474201202393,-0.009452641010284424,0.0248873233795166,2,0.6639183995941074,0.2492765540781837,0.02341337178467695,0.7046455857365069,0.3202141225337982,-0.9473271369934082,0.00585288368165493,-1.147346496582031,-47.03200531005859,15.37429809570312,2
1596229538.287171,33,0,101870.487400875,-1.173959842333279,1.568279188859755,1.244566617929454,-0.08065451681613922,-0.04570953547954559,-0.03396875783801079,0.1298913955688477,-0.03473085165023804,-0.01205062866210938,2,0.6614271926162757,0.2492202451499363,0.02412558804710424,0.7069804459684519,0.3204730451107025,-0.9472573399543762,-0.0008066765731200576,-1.108100891113281,-47.08606719970703,15.36477661132812,2
1596229538.329376,34,0,101870.517495875,-1.161738761597306,1.550642669207524,1.245648929373729,-0.2027792036533356,-0.3349577486515045,0.1271031349897385,0.03192013502120972,0.05651688575744629,-0.04218816757202148,2,0.6602584909154694,0.2466574911619785,0.02300606912222514,0.7090059613989548,0.3193833529949188,-0.9476036429405212,-0.006437614560127258,-1.025749206542969,-47.24232482910156,14.82254028320312,2
1596229538.355168,35,0,101870.547590875,-1.146808059085055,1.526266519540662,1.248918221941732,-0.2079861164093018,-0.3114876747131348,0.05684509128332138,-0.03219208121299744,-0.002931416034698486,0.004285216331481934,2,0.6591422927859002,0.2418476562243109,0.0214164671521167,0.7117460985557351,0.3160352408885956,-0.9486429691314697,-0.01408229768276215,-0.8541412353515625,-47.28644561767578,14.630615234375,2
1596229538.391478,36,0,101870.577685875,-1.120099674710406,1.494002911231328,1.248576368190352,-0.2370181977748871,-0.04561670497059822,-0.05657701939344406,-0.1963821053504944,-0.03818196058273315,0.0955502986907959,2,0.6562172665836469,0.2392313840704109,0.0202167458318151,0.715358953909964,0.3157394826412201,-0.9485347270965576,-0.02429448813199997,-0.8921432495117188,-47.43793487548828,14.3427734375,2
1596229538.422698,37,0,101870.607779875,-1.096544355396858,1.475236722407371,1.242019260070193,-0.361164927482605,0.2166495621204376,-0.2873986661434174,-0.1412785649299622,0.1034771203994751,0.164955198764801,2,0.6525822837224232,0.2423477241585343,0.02024258206590734,0.7176309064546482,0.3214125335216522,-0.9464378952980042,-0.03080788627266884,-0.6040725708007812,-47.25465393066406,14.05783081054688,2
1596229538.455187,38,0,101870.637876125,-1.056471354226743,1.445620974604792,1.234716586802691,-0.6059865951538086,0.3047561943531036,-0.06495200097560883,0.0155530571937561,-0.08123469352722168,0.2351818680763245,2,0.6468178512733752,0.2470623580012162,0.02252345143124196,0.7211654549169785,0.327208548784256,-0.9440547823905945,-0.04117371886968613,-0.617523193359375,-47.62242889404297,13.25433349609375,2
1596229538.49238,39,0,101870.667971125,-0.9861367410511801,1.386732840889302,1.227352313240926,-0.9155657887458801,0.1698295325040817,-0.2780525684356689,-0.06894564628601074,-0.06171810626983643,0.2607625126838684,2,0.6374703198087165,0.2506316870581184,0.02660380195711476,0.7280849023445572,0.3310440182685852,-0.9416005611419678,-0.06163069605827332,-0.5399017333984375,-47.83669281005859,12.81777954101562,2
1596229538.523047,40,0,101870.728161125,-0.7580027218719301,1.186624015610645,1.179853040985827,-2.080279350280762,0.4928697049617767,-0.2280296087265015,-0.04497337341308594,-0.1416777372360229,0.2085524201393127,2,0.6003960434076075,0.2609890963138058,0.03404942876283784,0.755149016018736,0.3532850444316864,-0.9245499968528748,-0.1428185701370239,0.3089447021484375,-48.36280059814453,9.498138427734375,2
1596229538.574007,41,0,101870.758256125,-0.6005580728389829,1.097460376441033,1.137828302125467,-3.595940828323364,3.714339017868042,-0.7046684622764587,-0.1674889922142029,-0.1683855652809143,0.2943222522735596,2,0.5690425184336766,0.2838295042994598,0.0558126645771384,0.7697508312928446,0.3734364211559296,-0.9077244400978088,-0.1912628561258316,0.7728958129882812,-49.09537506103516,5.578125,2
1596229538.590911,42,0,101870.788351125,-0.3631779584006871,1.05575355407476,1.043921146074857,-4.823278427124023,7.107216835021973,-1.07954204082489,-0.8043153285980225,-0.4907152056694031,0.2275592684745789,2,0.5024833030515732,0.3516665446595413,0.1117697045963109,0.7818878950233237,0.4376028180122375,-0.8643825650215149,-0.2476823478937149,2.078323364257812,-49.45413970947266,-2.197723388671875,2
1596229538.631198,43,0,101870.818446125,-0.16008896072683,1.113373457077061,0.9357124878492026,-5.109082221984863,8.136013031005859,-2.206600189208984,-1.544176578521729,-0.727133572101593,0.6511543989181519,2,0.4193639439848625,0.4394704621321964,0.1769300724104121,0.7744000053037075,0.5322556495666504,-0.8050219416618347,-0.2619991898536682,3.683883666992188,-48.70384979248047,-6.245880126953125,2
1596229538.65856,44,0,101870.848541125,-0.002594968800451265,1.237781378227704,0.7962647801011747,-4.57160758972168,8.013092994689941,-3.284319639205933,-0.5057652592658997,0.5053537487983704,0.9453687071800232,2,0.3164818912013157,0.5343477149034623,0.2239413063916497,0.7511072552574839,0.6609581708908081,-0.714748740196228,-0.2286234647035599,11.884521484375,-45.99107360839844,-12.96823120117188,2
1596229538.693448,45,0,101870.878636125,0.1287390664521573,1.377064184218094,0.6869476095320239,-3.547423601150513,6.931051731109619,-1.711544394493103,0.5987255573272705,0.8480162620544434,0.7689757943153381,2,0.2210155596385683,0.6137787031268397,0.260304886407293,0.7118070915010798,0.7587212324142456,-0.6341800689697266,-0.1488556563854218,16.70383453369141,-43.92121887207031,-14.28814697265625,2
1596229538.726384,46,0,101870.908731125,0.2284551376709431,1.474390678543578,0.6501470016869868,-1.98150646686554,3.650364875793457,-0.3008684813976288,0.8167465329170227,0.5812837481498718,0.03003913164138794,2,0.1623072725023532,0.6598079677449767,0.2932574392046836,0.6725399038402892,0.7922987341880798,-0.6053034067153931,-0.07661958783864975,22.37526702880859,-40.59087371826172,-14.735107421875,2
1596229538.761182,47,0,101870.938826125,0.2828887526417212,1.53734881563638,0.6343940746034039,-1.101469159126282,2.991571426391602,-0.6395276188850403,1.058733224868774,0.6101894974708557,0.3726842403411865,2,0.128855061693171,0.685513714855872,0.3109462559188782,0.6455848295376143,0.8049805164337158,-0.592689573764801,-0.02693464048206806,23.78416442871094,-39.82643890380859,-14.38638305664062,2
1596229538.812094,48,0,101870.999016125,0.3251968954022004,1.566841094980795,0.6299783053897984,-0.2932279407978058,-0.3351123929023743,0.7068975567817688,0.6208244562149048,0.2777531147003174,-0.08882415294647217,2,0.1079824705129192,0.6976688302010882,0.3248002400073528,0.6293670645163504,0.8080341219902039,-0.589127242565155,-0.003195978933945298,26.18405151367188,-38.97010803222656,-13.75845336914062,2
1596229538.829147,49,0,101871.029111125,0.3286956350707682,1.534992100859989,0.6544544550728916,0.1743548065423965,-1.424440264701843,0.7700155973434448,0.3040348887443542,0.3995107412338257,-0.1452246308326721,2,0.120620990649619,0.6864768212924739,0.3316588587567354,0.6357694062050958,0.79287189245224,-0.6087265014648438,-0.02840030007064342,24.54294586181641,-39.45127868652344,-14.89382934570312,2
1596229538.871403,50,0,101871.059205125,0.3092210965456549,1.498763069484809,0.6723697440186592,0.9275657534599304,-1.849946022033691,0.40218785405159,0.1926851868629456,0.4646098613739014,-0.1549117565155029,2,0.1396062815952079,0.672574837802557,0.3284648631423461,0.6482777572758589,0.7803190946578979,-0.6228417158126831,-0.05630634725093842,23.69216156005859,-39.80641937255859,-15.25527954101562,2
1596229538.896607,51,0,101871.089300125,0.2709765676805202,1.462916337071368,0.6891390683895778,0.9989532232284546,-1.909634232521057,0.6107167601585388,-0.1361100077629089,0.004151046276092529,-0.1349039077758789,2,0.1641607870131898,0.6568876563980259,0.3181756898821981,0.6635616026011913,0.767306923866272,-0.6358729600906372,-0.08309968560934067,21.81109619140625,-40.85520935058594,-15.5643310546875,2
1596229538.934319,52,0,101871.119395125,0.2436670016155043,1.43544167051824,0.7118026136758289,0.4984733462333679,-0.8881145715713501,0.5513690710067749,-0.3782511949539185,-0.5404717922210693,-0.03296303749084473,2,0.185613784224824,0.6437853305762914,0.3132705117752363,0.673015276877647,0.750260055065155,-0.6531997323036194,-0.1021759435534477,20.72481536865234,-41.61486053466797,-15.496826171875,2
1596229538.964298,53,0,101871.149490125,0.233521910301317,1.432944147366212,0.7185377097963142,0.2160559296607971,0.152918353676796,-0.1422102004289627,-0.3570932149887085,-0.166956901550293,0.01794195175170898,2,0.1917166856811388,0.6415009460959149,0.311570542144955,0.6742736376600137,0.7456278204917908,-0.658284604549408,-0.1034424975514412,19.48768615722656,-42.16905212402344,-15.47451782226562,2
1596229538.996927,54,0,101871.179585125,0.2197105981587423,1.453304025354471,0.7147419817711751,0.4022438228130341,0.4036655128002167,-0.03261333331465721,0.08431291580200195,0.2202795147895813,0.02451789379119873,2,0.1916388254921431,0.6473081254165556,0.3077684224630393,0.6704814778044011,0.7500554323196411,-0.655422568321228,-0.08853350579738617,19.69221496582031,-42.07911682128906,-15.23495483398438,2
1596229539.051059,55,0,101871.209680125,0.2057218667709645,1.4697176201728,0.7252035495120425,0.2738315165042877,-0.03065824136137962,0.6613089442253113,0.4942088723182678,0.1183097362518311,0.1453748941421509,2,0.1974075316739011,0.6505941759433883,0.3077956104947074,0.6655970019250923,0.7445447444915771,-0.6632877588272095,-0.07551497220993042,19.86110687255859,-42.30747222900391,-14.3846435546875,2
1596229539.064822,56,0,101871.269870125,0.2381940231086062,1.419991623640191,0.7781539605116633,-0.1262384802103043,0.1545385867357254,0.4975605607032776,-0.5233088731765747,0.1381686925888062,0.2247613072395325,2,0.2139768942829705,0.6330204187640356,0.3288813947667565,0.6673350681664653,0.7041274309158325,-0.701965868473053,-0.1069980785250664,17.11782073974609,-43.23929595947266,-15.15206909179688,2
1596229539.108899,57,0,101871.299965125,0.2324045009533055,1.450531555747752,0.7784779677995604,0.1496724039316177,1.352819442749023,-0.3554527461528778,-0.3644825220108032,0.05972814559936523,0.1831215620040894,2,0.210907115961551,0.6425014225562242,0.330298832308713,0.6584927948001207,0.7068403959274292,-0.7021965980529785,-0.08542022109031677,17.10453796386719,-43.25328826904297,-14.83694458007812,2
1596229539.133549,58,0,101871.330060125,0.2375351652734591,1.484057574207842,0.7727646267640658,-0.4256982803344727,0.9529740810394287,0.172950878739357,-0.001619458198547363,-0.3615501523017883,0.09713011980056763,2,0.2016419176982626,0.654467493333468,0.3337677349981805,0.6477746989256513,0.7132918238639832,-0.6981173157691956,-0.06202567368745804,17.89520263671875,-42.9935302734375,-14.315185546875,2
1596229539.167294,59,0,101871.360155125,0.2605011455703738,1.490075902947626,0.7839565547935151,-0.4829921424388885,0.5396969318389893,0.4730591177940369,0.1331640481948853,-0.04237848520278931,-0.07265830039978027,2,0.1970464959392987,0.6577412965430067,0.3450444651205871,0.6399167025122325,0.7058196663856506,-0.7060866951942444,-0.05709813162684441,17.74662780761719,-42.97345733642578,-14.55178833007812,2
1596229539.201064,60,0,101871.390250125,0.2737025436765915,1.490211063816044,0.7912461204130889,-0.05759111046791077,0.2568874359130859,0.04044118151068687,0.0006631612777709961,0.2029758095741272,-0.2114361524581909,2,0.1952572360880499,0.6584688028844554,0.3513944317839728,0.6362510808460689,0.7006783485412598,-0.7112298011779785,-0.05658689513802528,17.63362121582031,-42.98898315429688,-14.77499389648438,2
1596229539.235183,61,0,101871.420344125,0.2756376136659079,1.499667513687539,0.7908748271828694,-0.1385341137647629,0.3537550866603851,0.08169305324554443,0.05497002601623535,0.1058028340339661,-0.06754481792449951,2,0.1928226170224482,0.6616878367326076,0.352817706511687,0.6328572273637294,0.7014454007148743,-0.7109687328338623,-0.04997729137539864,17.84799194335938,-43.21559143066406,-14.63330078125,2
1596229539.268005,62,0,101871.450439125,0.2876026793690191,1.499263497203601,0.7981718820436048,-0.3520621955394745,0.2234173864126205,0.34622722864151,0.01914560794830322,-0.03045046329498291,0.0004805326461791992,2,0.1915076072016259,0.6621031326659588,0.3586799541805525,0.6295180431850457,0.6962318420410156,-0.7160812020301819,-0.04988855496048927,17.58727264404297,-43.08869171142578,-14.90548706054688,2
1596229539.302852,63,0,101871.480534125,0.3017159489411412,1.497886156083083,0.8045788298461239,-0.1992699801921844,0.4192676246166229,0.09185393899679184,-0.05740153789520264,0.1924499869346619,0.02050626277923584,2,0.1893444103463218,0.6624896908539989,0.3648325423567634,0.6262214566504335,0.6915724873542786,-0.7205386757850647,-0.05051220580935478,17.45230102539062,-43.07144927978516,-14.87493896484375,2
1596229539.349788,64,0,101871.540724125,0.2998388007366523,1.500151400260458,0.8070814064257235,0.2042186260223389,-0.5047070384025574,0.1843614727258682,0.08723801374435425,-0.03858208656311035,-0.09993898868560791,2,0.1904361535455039,0.6628159870425507,0.3651817732667088,0.6253410586601607,0.6898844838142395,-0.722271740436554,-0.04881807789206505,17.56608581542969,-43.174072265625,-15.07138061523438,2
1596229539.370603,65,0,101871.570819125,0.2965032965698289,1.487843107444933,0.8128872607968894,-0.03023159876465797,-0.4607902765274048,0.1444739103317261,0.01835459470748901,-0.06717932224273682,-0.06051838397979736,2,0.1958347077262329,0.6581567092523282,0.36461539410898,0.6289150209219686,0.6850405931472778,-0.7262749075889587,-0.05695702508091927,17.14455413818359,-43.37844085693359,-15.0494384765625,2
1596229539.410348,66,0,101871.600914125,0.295840212320304,1.473286403851507,0.8167221475656181,0.1153083145618439,-0.4930287003517151,0.1203353852033615,-0.1062440872192383,-0.008117496967315674,-0.1276911497116089,2,0.2000650123587207,0.6531833768521078,0.3640571259653674,0.6330781096151087,0.6813620328903198,-0.7289056777954102,-0.06665093451738358,16.53268432617188,-43.32823181152344,-15.35760498046875,2
1596229539.438377,67,0,101871.631009125,0.2902505970830864,1.46628438676143,0.8195348918555064,0.1373784244060516,-0.2011672258377075,0.02077812328934669,-0.1783010959625244,-0.07217848300933838,-0.1127456426620483,2,0.2041597583637074,0.6501659694657655,0.3623716349674252,0.6358379226777094,0.6788369417190552,-0.7308284640312195,-0.07120601087808609,16.21921539306641,-43.54666137695312,-15.12026977539062,2
1596229539.470859,68,0,101871.661104125,0.2842944248678669,1.465910707936949,0.8195182207448751,0.144322469830513,-0.1818277835845947,-0.01203500665724277,-0.05848985910415649,-0.06938230991363525,-0.0820004940032959,2,0.2061565161252668,0.6494374581876005,0.3604331967708242,0.6370388661079194,0.6788225173950195,-0.7308170795440674,-0.07146095484495163,16.01274871826172,-43.75498962402344,-15.253662109375,2
1596229539.505919,69,0,101871.691199125,0.2761040259712819,1.465071350220589,0.8205198788611141,0.182774230837822,-0.2559069991111755,0.01985678263008595,-0.005978643894195557,-0.08167511224746704,-0.02725642919540405,2,0.2093211084824147,0.6482345052774783,0.3580176009669513,0.6385922574691174,0.6780337691307068,-0.7315003871917725,-0.07195340096950531,16.20220947265625,-43.49639892578125,-15.2044677734375,2
1596229539.539121,70,0,101871.721294125,0.2719961972342382,1.456838808160453,0.82151080878725,0.05538622662425041,-0.5209029912948608,0.05482926964759827,0.1198558211326599,0.004641532897949219,-0.001041293144226074,2,0.2124723419008982,0.6450816219506351,0.35611465104625,0.6418003982523254,0.6766982674598694,-0.7321757078170776,-0.07745040953159332,15.78309631347656,-43.7989501953125,-15.27902221679688,2
1596229539.590033,71,0,101871.751389125,0.2654889192457012,1.441181354962478,0.8253114996157974,0.2616186738014221,-0.7912446856498718,0.1364702135324478,0.08838587999343872,0.07290327548980713,-0.004246294498443604,2,0.218698533364256,0.6390095517963428,0.3533974464503395,0.6472618374719046,0.6726379990577698,-0.7347590923309326,-0.08767548948526382,15.46128845214844,-44.04692840576172,-15.28594970703125,2
1596229539.606385,72,0,101871.811578125,0.2516492662113491,1.382794264549558,0.8402335631253162,0.1707557141780853,-1.437030076980591,0.3416090607643127,-0.02382689714431763,-0.06012719869613647,-0.02486711740493774,2,0.238660951988138,0.616995921617755,0.3462734460869996,0.6651703676637964,0.6555309295654297,-0.744799017906189,-0.1247139647603035,13.68819427490234,-44.22667694091797,-15.79928588867188,2
1596229539.650096,73,0,101871.841673125,0.2453456669674913,1.350466028112465,0.8479362934651861,0.180295392870903,-0.9212567806243896,0.06196976825594902,-0.1542518138885498,-0.02884912490844727,0.0681382417678833,2,0.2489785406263277,0.6047479613744938,0.3422701913756265,0.6746412622065326,0.6455399990081787,-0.7499167919158936,-0.1445791721343994,13.20237731933594,-44.37404632568359,-15.97763061523438,2
1596229539.674092,74,0,101871.871768125,0.2375400381203863,1.332953027483372,0.849255628828397,0.1482773572206497,-0.72715163230896,0.04501731693744659,0.007744669914245605,-0.02012240886688232,0.05421829223632812,2,0.2547902760636976,0.5977187213593388,0.3377645695389145,0.6809767561202125,0.6419468522071838,-0.7507889270782471,-0.1556284874677658,12.34548187255859,-44.48066711425781,-16.34176635742188,2
1596229539.710073,75,0,101871.901863125,0.2370184567716664,1.305881902932174,0.8547237591986453,-0.04517865926027298,-1.095063090324402,0.2472226470708847,0.02477502822875977,-0.03214448690414429,0.009335041046142578,2,0.2615369420912116,0.5879314572510848,0.3355011936661292,0.6880217355506638,0.6335273385047913,-0.7543895840644836,-0.1718700528144836,12.00735473632812,-44.71148681640625,-16.28628540039062,2
1596229539.741926,76,0,101871.931958125,0.2447946734580686,1.269494512679025,0.8599967966034928,-0.141946941614151,-0.8929710388183594,0.1702596545219421,-0.1158822178840637,0.04583030939102173,0.07022327184677124,2,0.2673542023937921,0.5759440062527721,0.3347048204810488,0.6962636066725734,0.6230482459068298,-0.7578404545783997,-0.1936204582452774,10.92901611328125,-44.72425079345703,-16.81546020507812,2
1596229539.776852,77,0,101871.962053125,0.2518405983360767,1.244252648950035,0.8616000278607837,-0.1029149666428566,-0.3869862854480743,-0.01462320610880852,-0.3030743002891541,-0.006928622722625732,0.07079195976257324,2,0.2701692955141521,0.5679450375368502,0.3341673494724672,0.7019823146500976,0.616811215877533,-0.7588855028152466,-0.2088939696550369,10.31584930419922,-44.74661254882812,-17.13009643554688,2
1596229539.829707,78,0,101871.992148125,0.2529550891019428,1.241024447343609,0.8570634669264814,-0.01455346681177616,0.1805174201726913,-0.1881122440099716,-0.09492725133895874,0.01198124885559082,0.1251294612884521,2,0.2686588408150833,0.5672953716633451,0.333029967409194,0.7036259713314894,0.6193846464157104,-0.7559233903884888,-0.211996778845787,10.29197692871094,-44.63433074951172,-17.4908447265625,2
1596229539.844806,79,0,101872.022243125,0.2500774966155501,1.24675663242751,0.8546600111202672,0.02675719931721687,-0.1466321796178818,0.01626497693359852,0.1065608859062195,0.01087301969528198,0.1208474636077881,2,0.2676049945703832,0.5691020926201099,0.3322054291095495,0.7029580228193154,0.6223101019859314,-0.7543477416038513,-0.2090207487344742,10.43625640869141,-44.3492431640625,-17.41116333007812,2
1596229539.889773,80,0,101872.082433125,0.2476775819825845,1.210211513803319,0.8541159440315156,0.1344200670719147,-0.8055770993232727,-0.1932029575109482,0.1032381057739258,0.08294486999511719,0.01420706510543823,2,0.2740874093992095,0.5558727267307744,0.3262761005885766,0.713740402935314,0.6146413087844849,-0.7539904713630676,-0.2317632138729095,10.05166625976562,-44.52526092529297,-17.81362915039062,2
1596229539.912338,81,0,101872.112527125,0.2242541733359723,1.189448485908593,0.8520448130945032,0.8582916259765625,-1.969903588294983,-0.2715768814086914,0.3265222907066345,0.1166596412658691,-0.1053810119628906,2,0.2830608724150214,0.545297222330953,0.314479538792019,0.7236230395746903,0.611145555973053,-0.7526283860206604,-0.2450549602508545,9.692276000976562,-44.82094573974609,-17.74224853515625,2
1596229539.95006,82,0,101872.142622125,0.1598631509671889,1.14607049591574,0.8587402159876728,1.89214825630188,-4.219307422637939,-0.4269227683544159,0.7202396392822266,0.1717383861541748,-0.0267784595489502,2,0.3093196057605469,0.5193260126514186,0.2859916467406514,0.7435258221254407,0.5953389406204224,-0.7570200562477112,-0.2692437469959259,8.925552368164062,-44.81529998779297,-17.21347045898438,2
1596229539.979985,83,0,101872.172717125,0.05396868504262962,1.067496121179693,0.8817414178984774,2.793868780136108,-6.283254146575928,-0.08787287771701813,0.8527971506118774,0.438669741153717,0.3088971972465515,2,0.3548238489477756,0.4698604738570025,0.238031298454511,0.7724456238701382,0.5569649934768677,-0.7718472480773926,-0.3066623508930206,7.020843505859375,-45.98224639892578,-15.28390502929688,2
1596229540.012934,84,0,101872.202812125,-0.05692342626054109,0.9365319735045078,0.9387542047813578,3.145965099334717,-8.045297622680664,0.7681990265846252,0.5718519687652588,0.6181373596191406,0.8097402453422546,2,0.4149300266564087,0.3908776032943945,0.1814240716901262,0.8013321083805607,0.4758889675140381,-0.8068227171897888,-0.3500955402851105,5.439437866210938,-46.94850921630859,-13.6959228515625,2
1596229540.047802,85,0,101872.232907125,-0.1834413743309992,0.7975082341034542,1.022951754041359,3.732802391052246,-8.419277191162109,0.4570237398147583,0.4099489152431488,0.4412208199501038,0.7134820222854614,2,0.4801793929636601,0.2958437327971752,0.1156416608577264,0.8176375802473539,0.3727284371852875,-0.8536491394042969,-0.3638084828853607,0.686553955078125,-48.49797821044922,-8.456817626953125,2
1596229540.080267,86,0,101872.263002125,-0.265354644284143,0.5942993338541862,1.108544901119043,2.43301248550415,-9.161211967468262,1.327028512954712,-0.1623876690864563,0.2059508562088013,0.8724924921989441,2,0.5317701353898228,0.180196304565762,0.04519834554997532,0.8262607309365221,0.2497079968452454,-0.8950507044792175,-0.3694996237754822,-2.671981811523438,-49.41175842285156,-2.43572998046875,2
1596229540.128449,87,0,101872.293097125,-0.226367715836053,0.3067237293573202,1.186837982582707,1.583670258522034,-7.447137355804443,1.874275326728821,-0.3902254998683929,0.02289402484893799,0.3859095573425293,2,0.5634029106986287,0.06341806248128046,-0.007656669896741408,0.8237091589835783,0.1131036579608917,-0.9271891117095947,-0.3571106195449829,-4.272674560546875,-49.25113677978516,0.1256103515625,2
1596229540.149805,88,0,101872.353287125,-0.04276080869164994,0.06359330795266314,1.212414621635271,0.4391069412231445,4.489447116851807,-0.7223475575447083,-1.566044092178345,0.1268526911735535,-0.1677533984184265,2,0.5698950303465923,0.01394608803192682,0.0005485827104893537,0.8215990054945048,0.0222909152507782,-0.9364656805992126,-0.3500503301620483,-8.778457641601562,-48.8167724609375,3.01348876953125,2
1596229540.185718,89,0,101872.383381125,-0.1458842334388056,0.2835392981259593,1.236889130098854,1.246403455734253,2.575502872467041,-0.919916570186615,-0.2703485190868378,0.2483031749725342,0.1326503753662109,2,0.5808157260512974,0.07299041693242386,0.0229172152074959,0.8104322156480949,0.09168621152639389,-0.944769024848938,-0.3146509826183319,-7.602630615234375,-49.050048828125,3.229248046875,2
1596229540.21742,90,0,101872.413476125,-0.2055835839223801,0.3521446297032871,1.254522170184384,-0.2077528685331345,-0.9609087705612183,-0.01202584244310856,0.6536575555801392,-1.357486367225647,-0.5532477498054504,2,0.5893570055724067,0.08177664047302802,0.02047294852705855,0.8034624392874969,0.1072771698236465,-0.9504008293151855,-0.2919417917728424,-7.022079467773438,-48.90293884277344,3.906951904296875,2
1596229540.250967,91,0,101872.443571125,-0.1925085353909116,0.309912857393197,1.245325086630714,0.1717463284730911,-1.090783476829529,-0.02559586428105831,0.2225677967071533,0.335955023765564,0.252102255821228,2,0.5855941294510371,0.06941476570088415,0.01245874119396173,0.8075307293119505,0.09751757979393005,-0.9475001692771912,-0.3045222163200378,-7.315017700195312,-49.02662658691406,4.104339599609375,2
1596229540.284372,92,0,101872.473666125,-0.2138606915012329,0.3038487974894241,1.261102914241945,0.655314564704895,-0.2417032569646835,0.02277234010398388,-0.3454933166503906,0.5442096590995789,0.245360255241394,2,0.5925164767330309,0.05933982215501046,0.003508821791813943,0.8033621544180569,0.09118466824293137,-0.9524270296096802,-0.2908060252666473,-6.851455688476562,-48.87172698974609,4.62548828125,2
1596229540.318644,93,0,101872.503761125,-0.2191871045057768,0.3246337205332299,1.279322049102088,0.4807712435722351,1.129724383354187,0.07041320949792862,-0.3285173177719116,-0.3934394121170044,0.1968026161193848,2,0.5997240411387761,0.06444767630805548,0.009289721615776236,0.7975533693380701,0.09165838360786438,-0.957821249961853,-0.2723551392555237,-7.100982666015625,-48.69403076171875,5.666656494140625,2
1596229540.353174,94,0,101872.533856125,-0.2544085569951154,0.3978926623118954,1.279145671219805,-0.08034341782331467,1.265065550804138,-0.6558077335357666,0.09329971671104431,-0.09124475717544556,0.07640022039413452,2,0.6004697851056597,0.08306849930207291,0.01722714786756901,0.7951345085892129,0.1114124953746796,-0.9577705860137939,-0.2650713324546814,-6.912605285644531,-48.7008056640625,5.8980712890625,2
1596229540.386146,95,0,101872.563951125,-0.3067710509919027,0.4696768160694301,1.276674679673579,0.3109615445137024,0.1495397835969925,-0.06592058390378952,0.3526297211647034,0.1977812647819519,-0.03294199705123901,2,0.6012524400135737,0.09613353935466304,0.01768886438483919,0.7930580365559783,0.1312080025672913,-0.9570571184158325,-0.2585076987743378,-6.464370727539062,-48.90174102783203,5.869659423828125,2
1596229540.428232,96,0,101872.624141125,-0.2291186385087965,0.3754606504986114,1.296326867686644,0.1019182428717613,-0.2193641513586044,0.09944599866867065,-0.1361556947231293,-0.06375366449356079,-0.06939244270324707,2,0.6062351594520737,0.08000630832022346,0.02240873599119109,0.7909335457482347,0.09938941895961761,-0.9625691175460815,-0.2521558403968811,-7.223663330078125,-48.63326263427734,6.12469482421875,2
1596229540.453945,97,0,101872.6542359167,-0.2560044349137785,0.4067447056373859,1.298217587741031,0.1997843682765961,0.4456926584243774,-0.2783394753932953,-0.1170625388622284,0.1294976472854614,0.05596375465393066,2,0.6077144345833192,0.08400728792018014,0.02149376848783724,0.7894074427669299,0.106507807970047,-0.9630798697471619,-0.247251883149147,-7.296562194824219,-48.62619781494141,6.374664306640625,2
1596229540.487501,98,0,101872.6843299167,-0.2642170028409769,0.4273662143365332,1.306460600519334,0.3227048516273499,0.2955069839954376,0.418035477399826,0.1908703744411469,-0.02940428256988525,0.02630585432052612,2,0.6109396600207118,0.08869975854499321,0.02553117310202124,0.7862781813622931,0.1082893535494804,-0.9652662873268127,-0.2377701699733734,-7.28729248046875,-48.59489440917969,6.887786865234375,2
1596229540.521732,99,0,101872.7144249167,-0.2132910960356748,0.3754780139712575,1.317288589307971,0.08468230068683624,-0.3742563128471375,0.4476014077663422,0.2132169902324677,0.006944000720977783,-0.1790925860404968,2,0.6135857049544307,0.0827555954032933,0.03088320929891086,0.7846720596446615,0.09197301417589188,-0.9680386185646057,-0.2333281934261322,-7.674240112304688,-48.54694366455078,7.019561767578125,2
1596229540.554464,100,0,101872.7445199167,-0.1901792423005761,0.3372080419464202,1.323158441492901,0.09693046659231186,-0.6507847905158997,0.1667390912771225,0.005533307790756226,0.01943570375442505,-0.05609190464019775,2,0.6154871998773893,0.07430043128596756,0.02877583768956476,0.7841089144683404,0.08109693974256516,-0.969494104385376,-0.2313099056482315,-8.104682922363281,-48.4302978515625,7.105621337890625,2
1596229540.589393,101,0,101872.7746149167,-0.1676282441483484,0.2981800479666403,1.328959145003151,0.2012479305267334,-0.5013283491134644,0.2575428187847137,-0.1660483777523041,0.0262916088104248,0.07873880863189697,2,0.6174573632194451,0.06547373258448724,0.02610117612459439,0.7834401269564563,0.07035677134990692,-0.9708996415138245,-0.228919193148613,-8.582298278808594,-48.20858001708984,7.83673095703125,2
1596229540.622099,102,0,101872.8047099167,-0.1592333260799011,0.2793476087312422,1.337154605852066,0.2504568994045258,-0.09550908207893372,-0.007354096509516239,-0.02785041928291321,0.07835710048675537,-0.1085194945335388,2,0.620577805771749,0.06008078793350832,0.02422324836858031,0.7814644651826033,0.06383717805147171,-0.9728296995162964,-0.2225469648838043,-8.823883056640625,-48.16575622558594,8.032073974609375,2
1596229540.667437,103,0,101872.8348049167,-0.1665511834118386,0.2850976559892859,1.339046051039769,-0.1240319609642029,-0.2467734813690186,0.05629365891218185,0.01648345589637756,-0.09312170743942261,0.05754363536834717,2,0.6214542390489449,0.05991235072669654,0.02330176614828133,0.7808087000853771,0.0645982101559639,-0.9732658863067627,-0.2204102724790573,-8.723487854003906,-48.48546600341797,8.34393310546875,2
1596229540.68987,104,0,101872.8949949167,-0.1621471133203689,0.2626068192040934,1.340902133207765,0.0399225726723671,0.03238974511623383,-0.1581242233514786,-0.05644765496253967,0.05783653259277344,0.02462911605834961,2,0.6222754541737047,0.05236346056575575,0.01817379202335467,0.7808336478945015,0.05915609374642372,-0.9736905097961426,-0.2200626581907272,-8.571647644042969,-48.08516693115234,8.346435546875,2
1596229540.726638,105,0,101872.9250899167,-0.1688250539761877,0.2727829332156267,1.340352809665167,-0.01864218339323997,0.1309964507818222,-0.00972607359290123,-0.08696618676185608,-0.04550087451934814,0.02097368240356445,2,0.6221492275265197,0.05429903706433012,0.01868998669524696,0.7807897589216964,0.06153634190559387,-0.9735651612281799,-0.2199639081954956,-8.305427551269531,-48.17264556884766,8.392974853515625,2
1596229540.757451,106,0,101872.9551839167,-0.1871197088288911,0.292358127874074,1.340026226892127,0.06618663668632507,0.03437035530805588,-0.3302410244941711,-0.08745774626731873,0.07896566390991211,0.001998245716094971,2,0.6223524180551374,0.05627333148815597,0.01761255226638231,0.7805130008875286,0.06592170149087906,-0.9734905362129211,-0.2190215587615967,-8.337852478027344,-48.3157958984375,8.419036865234375,2
1596229540.792467,107,0,101872.9852789167,-0.2283114562038389,0.3356279529628692,1.338610438983811,0.01167934667319059,0.1297279000282288,-0.2097317278385162,0.09633162617683411,-0.0204540491104126,0.03267508745193481,2,0.6226649546136354,0.06045877131345812,0.01487850193457857,0.7800074959122262,0.07578794658184052,-0.97316575050354,-0.2172661870718002,-8.114059448242188,-48.45599365234375,8.5152587890625,2
1596229540.825277,108,0,101873.0153739167,-0.235743556831167,0.3431220501506614,1.335837154747112,-0.1235451400279999,-0.1058193221688271,-0.03466429561376572,0.004500359296798706,-0.001802563667297363,-0.0210874080657959,2,0.621788673616062,0.06133880755787141,0.01402968787438696,0.7806532665908376,0.0783216804265976,-0.9725238680839539,-0.2192327976226807,-7.6630859375,-48.46051025390625,8.231689453125,2
1596229540.86037,109,0,101873.0454689167,-0.2431449228866117,0.3487170838736858,1.333736149508898,0.05949943512678146,0.07692931592464447,-0.1348133683204651,-0.04719218611717224,0.008410871028900146,-0.05241107940673828,2,0.6211849382714013,0.06143163774841667,0.01266097046381881,0.781149825046522,0.08024501800537109,-0.9720326066017151,-0.2207108587026596,-7.682861328125,-48.50385284423828,7.8916015625,2
1596229540.910412,110,0,101873.0755639167,-0.2572706351128282,0.3699888844963211,1.332348469109592,-0.1203635260462761,0.2804206013679504,-0.0594627819955349,0.09283852577209473,-0.002754271030426025,0.07328951358795166,2,0.6209703585339971,0.06549546852999008,0.01360062516748883,0.7809746318778094,0.08540942519903183,-0.9717057347297668,-0.220212310552597,-7.317741394042969,-48.29807281494141,8.3968505859375,2
1596229540.927916,111,0,101873.1056589167,-0.2449749471417962,0.3602458515546884,1.330392532958774,0.02908464707434177,-0.08718279749155045,0.258143812417984,0.114296555519104,0.00733482837677002,-0.04343068599700928,2,0.6199005295211784,0.06570681196640427,0.01516906832217407,0.7817774339698929,0.08392957597970963,-0.9712418913841248,-0.2228118926286697,-7.335960388183594,-48.29889678955078,8.18170166015625,2
1596229540.967803,112,0,101873.1658489167,-0.2371123251107689,0.3437046783273504,1.328315580535577,-0.1953098773956299,-0.1332210451364517,-0.04185756668448448,-0.05616879463195801,-0.0292704701423645,-0.01774704456329346,2,0.6189805821537029,0.06187984144040812,0.01290366119132197,0.7828584463113777,0.08091208338737488,-0.970745325088501,-0.226067841053009,-7.558845520019531,-48.51559448242188,8.282958984375,2
1596229540.995752,113,0,101873.1959429167,-0.2464869442317146,0.3500487967465281,1.32141595731332,-0.1109769493341446,-0.0417155958712101,-0.2352974116802216,-0.1000157296657562,0.03152722120285034,-0.01823365688323975,2,0.6166182809264374,0.06215694809908637,0.01047130083547521,0.7847349295922275,0.08463986217975616,-0.9690655469894409,-0.2318368256092072,-7.320899963378906,-48.45612335205078,7.958740234375,2
1596229541.029132,114,0,101873.2260379167,-0.2779303573358129,0.3806451200318763,1.318131383938387,-0.02431745454668999,-0.03272369503974915,-0.2677426636219025,0.005150556564331055,0.06729084253311157,0.0271916389465332,2,0.6162402961127984,0.06481987632909353,0.007199940515980774,0.784853142600261,0.09287437796592712,-0.9682496786117554,-0.232092559337616,-7.126861572265625,-48.42762756347656,7.906646728515625,2
1596229541.063486,115,0,101873.2561329167,-0.2876657182414309,0.3855616843863541,1.312217688526829,-0.1942097246646881,-0.2019985169172287,-0.04055102169513702,-0.02864149212837219,-0.03073632717132568,0.01397109031677246,2,0.6143146750441547,0.06442065354444729,0.00419706222777616,0.7864158960823915,0.0961662158370018,-0.9667543768882751,-0.2369349151849747,-6.493949890136719,-48.62094116210938,7.453826904296875,2
1596229541.096056,116,0,101873.2862279167,-0.2902173165226639,0.3854216414986187,1.308659128084952,-0.00918987113982439,0.0972612053155899,-0.1683500707149506,-0.09498125314712524,0.01534748077392578,-0.04208219051361084,2,0.6130565183371791,0.06398746851442813,0.002729522629796199,0.7874388412112061,0.09742573648691177,-0.9658383131027222,-0.2401346117258072,-6.48193359375,-48.86549377441406,7.605072021484375,2
1596229541.131988,117,0,101873.3163229167,-0.313314193750493,0.415544006720259,1.305577300283264,-0.05780872330069542,0.3397179543972015,-0.1997155398130417,-0.02788981795310974,0.0588759183883667,0.01771199703216553,2,0.6126285548648878,0.06913371584869429,0.002487795050202024,0.7873377138288915,0.1058149784803391,-0.9650351405143738,-0.2398135662078857,-6.3447265625,-48.74220275878906,7.287445068359375,2
1596229541.163711,118,0,101873.3464179167,-0.3178907117232835,0.4267714792888856,1.303051868647187,-0.04646109417080879,0.09380418062210083,0.04921911656856537,0.1115402281284332,-0.01853436231613159,-0.07679557800292969,2,0.6118290121741224,0.07246597242274894,0.003797811385145178,0.7876544139212666,0.109509065747261,-0.96437007188797,-0.240827888250351,-6.272605895996094,-48.69612121582031,7.259033203125,2
1596229541.21111,119,0,101873.3765129167,-0.3061495149816357,0.4156877357843381,1.303490734093326,-0.01009935792535543,-0.052276860922575,0.08391451090574265,0.0872795581817627,0.01547247171401978,-0.01745522022247314,2,0.611594879332069,0.07163730547382738,0.005088790113650155,0.7879047212185579,0.1066621840000153,-0.9644860625267029,-0.2416395992040634,-6.154586791992188,-48.76950836181641,7.20233154296875,2
1596229541.231628,120,0,101873.4367019167,-0.3088519732658365,0.4168331596613911,1.303724749869933,0.0149281919002533,0.1706702262163162,-0.08614713698625565,-0.03647395968437195,-0.005476474761962891,0.04237759113311768,2,0.6117762570371738,0.0712335854947076,0.004404113964482259,0.7878047018945349,0.1068476438522339,-0.964547872543335,-0.241311177611351,-6.232765197753906,-48.85318756103516,7.26702880859375,2
1596229541.268949,121,0,101873.4667969167,-0.3168000599951123,0.4328279981352143,1.302117906041966,-0.06381694972515106,0.3404397964477539,-0.09773721545934677,-0.005675077438354492,0.03152227401733398,0.003984928131103516,2,0.6114249497225449,0.07530178152443293,0.005957498728236976,0.7876889397864322,0.1113436371088028,-0.9641225337982178,-0.2409783452749252,-6.304931640625,-48.88937377929688,7.260101318359375,2
1596229541.299267,122,0,101873.4968919167,-0.3218599941851839,0.4439504487696915,1.299383390140954,-0.07218726724386215,0.03372941166162491,-0.04435335472226143,0.04736915230751038,-0.01081258058547974,-0.04306048154830933,2,0.6105634716745598,0.07848406261283122,0.007000030675752222,0.7880378722179202,0.1151489019393921,-0.9633930325508118,-0.2421049922704697,-6.150802612304688,-48.97390747070312,7.064300537109375,2
1596229541.334197,123,0,101873.5269869167,-0.3204599917768643,0.4423851815652458,1.296078543171593,-0.1249865666031837,-0.02056312188506126,-0.03015231154859066,0.03189241886138916,-0.002560555934906006,-0.02409499883651733,2,0.6092811023262239,0.07871585399194783,0.006633319944315486,0.7890097819659176,0.1161320433020592,-0.9625018239021301,-0.245160698890686,-6.044334411621094,-48.95444488525391,6.9049072265625,2
1596229541.366998,124,0,101873.5570819167,-0.3153701081368664,0.4367329844745073,1.293578924526345,-0.04147624224424362,-0.01737741939723492,0.0258045382797718,0.02672871947288513,0.03062373399734497,-0.02322447299957275,2,0.6081653102738916,0.07835019454015274,0.006591102202854415,0.7899068384508098,0.1157617494463921,-0.9618207216262817,-0.2479924112558365,-5.996772766113281,-48.85901641845703,6.832305908203125,2
1596229541.401928,125,0,101873.5871769167,-0.3149305285669415,0.4349717410850426,1.293220506913521,-0.002858859486877918,-0.104977011680603,-0.02367179095745087,-0.02116307616233826,0.006308555603027344,-0.01018917560577393,2,0.6080194416303856,0.07783315176554878,0.006182113312681314,0.7900735873908947,0.1154701411724091,-0.9617225527763367,-0.2485087215900421,-5.921409606933594,-48.85108184814453,6.74658203125,2
1596229541.449909,126,0,101873.6172719167,-0.3195475200676106,0.4333936411303542,1.29477231879846,0.2117034941911697,-0.272548645734787,0.002299465704709291,-0.0073738694190979,0.02004379034042358,-0.04274970293045044,2,0.6087817863508265,0.07561039876238485,0.004082456819643254,0.7897158686642536,0.1144508123397827,-0.9621466398239136,-0.2473356127738953,-5.947113037109375,-48.83887481689453,6.869140625,2
1596229541.469903,127,0,101873.6473661667,-0.3246940086160769,0.4330058445724581,1.297077415814841,-0.07938691973686218,-0.07377249002456665,-0.02656158804893494,-0.01524445414543152,0.04643434286117554,-0.004843473434448242,2,0.6098362680509664,0.07359794189582872,0.002236861426451409,0.7890995314636182,0.1134239658713341,-0.9627723097801208,-0.2453661412000656,-5.988731384277344,-48.73245239257812,6.771820068359375,2
