loggingTime,loggingSample,identifierForVendor,motionTimestamp_sinceReboot,motionYaw,motionRoll,motionPitch,motionRotationRateX,motionRotationRateY,motionRotationRateZ,motionUserAccelerationX,motionUserAccelerationY,motionUserAccelerationZ,motionAttitudeReferenceFrame,motionQuaternionX,motionQuaternionY,motionQuaternionZ,motionQuaternionW,motionGravityX,motionGravityY,motionGravityZ,motionMagneticFieldX,motionMagneticFieldY,motionMagneticFieldZ,motionMagneticFieldCalibrationAccuracy
1596229603.638129,1,0,101935.822639375,-0.7118662941375069,0.8002398888163725,1.267629376060758,0.07056024670600891,0.08284185081720352,-0.0352076068520546,-0.002870619297027588,0.007893681526184082,0.01379817724227905,2,0.6206317845691341,0.1041303957330936,-0.04237746160008077,0.7760006734992331,0.2142121195793152,-0.9543958306312561,-0.2079460918903351,-0.9181365966796875,-49.09202575683594,9.827545166015625,2
1596229603.662688,2,0,101935.852733375,-0.7113953015391716,0.8015682427378299,1.268204017944861,-0.001650914549827576,-0.004405179526656866,0.06100363656878471,0.03869172930717468,-0.00984644889831543,-0.001525163650512695,2,0.6208117571679187,0.1046555037028417,-0.04164332795022035,0.7758258410697494,0.2140942215919495,-0.9545671939849854,-0.2072799801826477,-0.9449539184570312,-48.94430541992188,9.4495849609375,2
1596229603.688992,3,0,101935.882828375,-0.7106336682268186,0.8008788037887337,1.269873142220096,0.03270014375448227,0.0516597218811512,-0.007110986858606339,-0.01420339941978455,0.02771973609924316,0.006182670593261719,2,0.6212706995314498,0.10422836809232,-0.04115778604844084,0.7755418699456296,0.2128071784973145,-0.9550632834434509,-0.2063183337450027,-1.030410766601562,-49.01102447509766,9.700531005859375,2
1596229603.730286,4,0,101935.912922375,-0.7135109111340253,0.8074942137609898,1.270414076178656,0.0382760725915432,0.1355394124984741,0.04270637035369873,0.02544587850570679,0.01190567016601562,0.02297544479370117,2,0.6217219245007188,0.1057700636024669,-0.04008616191020303,0.7750275889949152,0.2137943208217621,-0.9552234411239624,-0.2045490890741348,-0.8911819458007812,-48.63287353515625,9.85235595703125,2
1596229603.744895,5,0,101935.943016375,-0.7067779797940925,0.8032930207256592,1.273733590889334,0.03475875779986382,0.08667226880788803,0.2082575410604477,0.05910393595695496,-0.01278519630432129,-0.02653545141220093,2,0.6223019041983056,0.1054469755259272,-0.03797816677946653,0.7747121990315291,0.2106498926877975,-0.9562003612518311,-0.2032425552606583,-1.23187255859375,-48.85136413574219,9.66583251953125,2
1596229603.789867,6,0,101935.973111375,-0.7010921192604278,0.800215162693288,1.279050320885287,0.07416058331727982,0.1311577558517456,0.07159072905778885,-0.05120113492012024,0.03691983222961426,0.02143228054046631,2,0.6235789591285119,0.1047684540377118,-0.03545066205495284,0.7738966724728571,0.2063724845647812,-0.9577431678771973,-0.2003457099199295,-1.623344421386719,-49.25517272949219,9.869537353515625,2
1596229603.805216,7,0,101936.003205375,-0.7073574237264567,0.8125981050627727,1.278127924998167,-0.01039386354386806,0.2537113726139069,-0.1442022621631622,-0.05463898181915283,0.01893508434295654,0.08990812301635742,2,0.6238452426370601,0.1078231870960574,-0.03423611825043266,0.7733170490753077,0.2094790935516357,-0.9574774503707886,-0.1983825415372849,-1.53289794921875,-49.01335144042969,9.982025146484375,2
1596229603.849127,8,0,101936.033300375,-0.7137750943858584,0.8232044157097934,1.277327744705818,0.01730659231543541,0.04976291954517365,0.04344915598630905,0.06254479289054871,-0.002554357051849365,-0.03900903463363647,2,0.6241315399639529,0.1101119637820243,-0.03360346264966363,0.772791061781265,0.2121330499649048,-0.9572462439537048,-0.1966703534126282,-1.363677978515625,-48.98839569091797,10.09628295898438,2
1596229603.865254,9,0,101936.063394375,-0.7052058651330012,0.817566297810409,1.277705617032739,-0.07245717197656631,0.1139253377914429,0.05872263014316559,-0.04223135113716125,-0.03714215755462646,0.0180860161781311,2,0.6236813563419819,0.1105156173632756,-0.03195773050873457,0.7731665790634563,0.2107568383216858,-0.9573554992675781,-0.1976157277822495,-1.521095275878906,-49.12602233886719,9.863006591796875,2
1596229603.906799,10,0,101936.093488375,-0.7054788502639925,0.825003112772056,1.276392213061208,0.01581297814846039,0.3700860738754272,-0.1470105648040771,-0.1302065551280975,0.07856130599975586,0.05175024271011353,2,0.6234121257856818,0.1136188532651021,-0.03006622753995442,0.7730098285297028,0.2131442874670029,-0.9569752216339111,-0.1968961507081985,-1.553413391113281,-49.11554718017578,9.986907958984375,2
1596229603.925443,11,0,101936.123583375,-0.7233718501863159,0.8538712499441947,1.274585651838519,0.1382366716861725,0.4028420746326447,-0.1209171637892723,-0.01930609345436096,-0.009007573127746582,-0.1242230534553528,2,0.624333323929863,0.1196207655575962,-0.02841873001505169,0.771421573464208,0.2200416028499603,-0.9564494490623474,-0.1917975395917892,-1.5264892578125,-49.14128112792969,10.04013061523438,2
1596229603.967046,12,0,101936.153677375,-0.7462265516871073,0.8829742420984915,1.273970057986233,0.1882933229207993,0.1107490509748459,-0.2689433991909027,-0.1320017874240875,0.003429174423217773,-0.1013773083686829,2,0.6259553062759164,0.1238405443836991,-0.02828279373594417,0.7694436658607909,0.2259841710329056,-0.9562695622444153,-0.1856869459152222,-1.421943664550781,-48.8524169921875,10.36196899414062,2
1596229603.986446,13,0,101936.183772375,-0.7914800149823412,0.9325377307964126,1.269547533994329,0.3341442346572876,0.3947872519493103,-0.4415042698383331,-0.07130065560340881,0.09070175886154175,-0.05717933177947998,2,0.6282972057956583,0.1298158764207403,-0.03128407336258959,0.7664279187609281,0.2383004128932953,-0.9549667239189148,-0.1767809242010117,-1.093803405761719,-48.81548309326172,10.48007202148438,2
1596229604.028655,14,0,101936.213866375,-0.8394971020529584,0.9925116430757932,1.266093459203905,0.330700159072876,0.4273886382579803,-0.2909682989120483,0.006648898124694824,0.03498548269271851,-0.1067089438438416,2,0.6315192464427093,0.1385374706019565,-0.03169738420020318,0.7622243451652565,0.2512282729148865,-0.9539361596107483,-0.1639816164970398,-0.4907608032226562,-48.82609558105469,10.96051025390625,2
1596229604.04625,15,0,101936.243961375,-0.8907477058992506,1.051894184281611,1.264099672003324,0.4445703029632568,0.3927361369132996,-0.4114752113819122,-0.1132321953773499,0.07864320278167725,-0.1093131303787231,2,0.6356020680679328,0.1454202164108571,-0.03293141945599848,0.7574817033581519,0.2621688544750214,-0.9533360600471497,-0.1497259438037872,-0.2412109375,-48.75019836425781,11.14169311523438,2
1596229604.089606,16,0,101936.274055375,-0.9477105537516402,1.12316716384838,1.257360743409888,0.3300809264183044,0.6403264999389648,-0.4391335546970367,0.01095882058143616,0.05489224195480347,-0.01891374588012695,2,0.6394535817773925,0.1561162761458051,-0.03372728639640854,0.7520566632081243,0.277950644493103,-0.951279878616333,-0.1334536522626877,0.218719482421875,-48.32188415527344,12.1085205078125,2
1596229604.106058,17,0,101936.304149375,-0.9912323761470377,1.181891124406962,1.254969700752238,0.5186870098114014,0.5702537298202515,-0.1071188002824783,0.09851333498954773,0.0006754398345947266,-0.04559069871902466,2,0.643371892104292,0.1648823591153893,-0.0319452676699753,0.7469042288928996,0.2874080240726471,-0.9505399465560913,-0.1177728325128555,0.563720703125,-48.32524871826172,12.41552734375,2
1596229604.148409,18,0,101936.334244375,-1.039214718001056,1.245192162339078,1.257193413909384,0.4119966924190521,0.5574732422828674,-0.09455908834934235,0.139018177986145,0.08009326457977295,0.04269754886627197,2,0.6488408722261039,0.1722376118603575,-0.02863057757612747,0.7406213581956509,0.2922790944576263,-0.9512283205986023,-0.09867945313453674,0.50946044921875,-48.2476806640625,13.42340087890625,2
1596229604.166227,19,0,101936.364338375,-1.087213024694612,1.307583086155654,1.260891174161068,0.6008455753326416,0.6140989065170288,0.01512559130787849,-0.001273751258850098,-0.02976489067077637,0.1165386438369751,2,0.6545894570755852,0.1784337604513606,-0.02478690908782494,0.7342068620395455,0.2944650948047638,-0.9523624777793884,-0.07934807240962982,0.32623291015625,-47.88416290283203,14.53228759765625,2
1596229604.205564,20,0,101936.394433375,-1.128017905461758,1.362621474842743,1.261772927051156,0.2266288250684738,0.3756147027015686,-0.2142527550458908,-0.1273678541183472,-0.06324505805969238,0.1835671067237854,2,0.6590844919686746,0.1848777793686339,-0.02133994193736721,0.7286786519002895,0.2975626289844513,-0.9526310563087463,-0.06285567581653595,0.02325439453125,-47.77900695800781,14.60910034179688,2
1596229604.226555,21,0,101936.424527375,-1.159536836594573,1.398777750941684,1.25204354157113,0.2825097143650055,0.04598623886704445,-0.4552160501480103,0.1380987763404846,-0.02591395378112793,-0.1809633374214172,2,0.660890682945405,0.190794333338188,-0.02416745866489162,0.7254218169711824,0.3087568283081055,-0.9496269822120667,-0.05364205688238144,0.6027984619140625,-47.71633911132812,15.33444213867188,2
1596229604.272684,22,0,101936.454622375,-1.191468053555829,1.421054932435587,1.245711030020933,0.3255787491798401,-0.6352343559265137,-0.006496849004179239,0.2797959446907043,-0.01990252733230591,-0.1852374076843262,2,0.6632751410223768,0.1903744848936435,-0.03052348896717566,0.7231126380359741,0.3158153295516968,-0.9476234912872314,-0.04764728620648384,1.049247741699219,-47.45254516601562,15.52792358398438,2
1596229604.28675,23,0,101936.484716375,-1.218969979232947,1.425992051061315,1.249800994452957,0.3545608222484589,-0.6131710410118103,0.07712026685476303,0.04155230522155762,0.02372521162033081,0.06849020719528198,2,0.6665100365224038,0.181660155118256,-0.03741274518053544,0.7220556384065776,0.31220942735672,-0.9489218592643738,-0.04552792012691498,1.239715576171875,-47.15847015380859,16.15585327148438,2
1596229604.328772,24,0,101936.514810375,-1.24573674808676,1.437068711982161,1.249405852701419,0.1189273446798325,-0.1609061509370804,-0.2405327409505844,-0.2660175561904907,0.007333159446716309,0.1619269251823425,2,0.6690783481144521,0.1768493397484295,-0.04350389599715876,0.7205317413275754,0.313066154718399,-0.9487971067428589,-0.04211695119738579,1.427101135253906,-47.23052215576172,16.15164184570312,2
1596229604.347143,25,0,101936.544905375,-1.26030624234001,1.449608657792854,1.23979475209048,0.14467553794384,0.03969363123178482,-0.3068161904811859,-0.04640644788742065,-0.02180349826812744,0.07336735725402832,2,0.6693740493108962,0.179705696951159,-0.04787474811469494,0.7192720174274426,0.3226067721843719,-0.9457173347473145,-0.03928849101066589,2.06146240234375,-47.10950469970703,16.58749389648438,2
1596229604.385585,26,0,101936.574999375,-1.26979685315622,1.460963814153146,1.234652198458077,0.01582715474069118,0.07494001090526581,-0.09191721677780151,0.01195880770683289,0.02965188026428223,0.1986105442047119,2,0.6698334798250524,0.1823332456312206,-0.04926537116999585,0.7180881491301853,0.327861875295639,-0.9440335631370544,-0.03615539520978928,2.321937561035156,-46.93498229980469,16.79891967773438,2
1596229604.407107,27,0,101936.605094375,-1.267008460750711,1.468626596615438,1.232182392088607,-0.1502485722303391,0.6166459321975708,-0.06494177132844925,-0.08729547262191772,-0.02996861934661865,0.2194218039512634,2,0.6694392077141977,0.1868455907942915,-0.04655637179639205,0.7174764259271595,0.3304479420185089,-0.9432159662246704,-0.03387974575161934,2.367080688476562,-47.06133270263672,16.65353393554688,2
1596229604.448194,28,0,101936.635188375,-1.261490868038231,1.488348754036617,1.230822551810923,0.0931866392493248,0.9103519916534424,-0.03306984901428223,-0.1305995583534241,0.08508181571960449,0.06609869003295898,2,0.669155351471445,0.1962144105088905,-0.03845250155566743,0.7157181651860708,0.3323298394680023,-0.9427633881568909,-0.02746204100549221,2.274826049804688,-47.22509765625,16.60543823242188,2
1596229604.467124,29,0,101936.665283375,-1.27522554205925,1.520514935834459,1.227289253693274,0.1999465078115463,0.5815975666046143,-0.1933988332748413,0.1064910888671875,0.05711781978607178,-0.4092517495155334,2,0.6706750950033924,0.2042824146439281,-0.03381670800804149,0.712264128516778,0.3363661170005798,-0.941579282283783,-0.01692722365260124,1.711700439453125,-46.97305297851562,16.7479248046875,2
1596229604.507997,30,0,101936.69537825,-1.294025016190691,1.558280475212801,1.22429177472688,0.09690602868795395,0.4962765872478485,-0.03643638268113136,0.04225438833236694,0.0215601921081543,0.2258520126342773,2,0.6728798465539096,0.2123852587263197,-0.02886088287957966,0.7080200203482426,0.3395858407020569,-0.9405655264854431,-0.004250428173691034,1.709037780761719,-46.97882843017578,17.03305053710938,2
1596229604.527712,31,0,101936.72547225,-1.288156434170048,1.563289991525678,1.218954813084796,-0.2276838421821594,0.2840599417686462,-0.329035758972168,-0.08505156636238098,-0.03589332103729248,0.1581114530563354,2,0.6717254590199673,0.2179253920837496,-0.02698287607899419,0.70750644056907,0.3446173965930939,-0.9387396574020386,-0.002586862305179238,1.554489135742188,-47.10918426513672,17.35342407226562,2
1596229604.569535,32,0,101936.75556725,-1.266140726198398,1.545487584326399,1.207830842273223,-0.2357934862375259,-0.05304346233606339,-0.3557387590408325,0.04405122995376587,0.002323269844055176,-0.08748066425323486,2,0.6677606505759389,0.2227179436968776,-0.029064947103701,0.7096813925238445,0.354934424161911,-0.9348480701446533,-0.008984861895442009,1.80462646484375,-46.92914581298828,17.03176879882812,2
1596229604.588484,33,0,101936.78566125,-1.236580771909919,1.515450763575965,1.200298634243487,-0.3941223621368408,-0.1517095267772675,-0.06125062704086304,0.04985499382019043,-0.03669875860214233,-0.1444047689437866,2,0.6630545913710022,0.2243746535187351,-0.03118506027143936,0.7134718191673621,0.3615247905254364,-0.9321472644805908,-0.02002924680709839,2.292984008789062,-47.00400543212891,16.5736083984375,2
1596229604.629659,34,0,101936.81575625,-1.221151909474535,1.498123210466528,1.198536084542193,-0.05257276818156242,-0.255616307258606,-0.1458863914012909,0.1366753578186035,0.01935470104217529,0.0331571102142334,2,0.6608143088237822,0.2238742518157642,-0.03202331278844506,0.715667021800936,0.3627617657184601,-0.9315076470375061,-0.02640953660011292,2.713157653808594,-47.22783660888672,16.11465454101562,2
1596229604.647735,35,0,101936.84585025,-1.216780253033558,1.478596607765579,1.194170880489961,0.04387381672859192,-0.5301703214645386,-0.02388299629092216,0.1823780834674835,0.01116013526916504,-0.1529103517532349,2,0.6593741827543124,0.2197609378653735,-0.03842065793084587,0.7179517950608933,0.3662227094173431,-0.9299110174179077,-0.03386163339018822,2.832954406738281,-47.16129302978516,15.9176025390625,2
1596229604.690289,36,0,101936.87594525,-1.225627615188656,1.467754923022916,1.19612703298178,0.02483789250254631,-0.8801550269126892,0.02626055479049683,-0.002405166625976562,-0.01237404346466064,-0.005554854869842529,2,0.6603839527025218,0.2123008061770815,-0.0444970085801939,0.7189167735834986,0.3640234470367432,-0.9306287169456482,-0.03764280676841736,3.337501525878906,-47.30291748046875,15.74017333984375,2
1596229604.707892,37,0,101936.90603925,-1.222357344099019,1.447322415154657,1.194101274169316,-0.01507704146206379,-0.1028518229722977,-0.1002518311142921,-0.1252399086952209,0.06331908702850342,0.1796533465385437,2,0.6592614563777018,0.206693215443057,-0.05076142879697065,0.7211626820492381,0.3650489747524261,-0.9298854470252991,-0.04530449211597443,3.476089477539062,-47.18585205078125,16.02557373046875,2
1596229604.750486,38,0,101936.93613325,-1.219849279965928,1.451048130154324,1.192188637506934,-0.152786910533905,0.3672369420528412,-0.01428205519914627,-0.1481320261955261,-0.02011346817016602,0.3027729988098145,2,0.6588125022340902,0.2094942324982874,-0.04928986278031094,0.7208667508253195,0.3669804036617279,-0.9291801452636719,-0.0441565066576004,3.674583435058594,-47.05940246582031,15.7230224609375,2
1596229604.769871,39,0,101936.96622825,-1.196228428012272,1.441210435195081,1.187907930699858,-0.5364566445350647,0.4114637076854706,-0.2811366617679596,-0.1219881772994995,-0.04066133499145508,0.3716768026351929,2,0.6554290973180888,0.2151131942504663,-0.04547450459659147,0.7225447678048059,0.3704684674739838,-0.9275894165039062,-0.04827802255749702,3.472496032714844,-47.08875274658203,15.51528930664062,2
1596229604.80705,40,0,101936.99632225,-1.135002209286791,1.394437160402594,1.170015791911036,-1.176473617553711,0.3592053353786469,-0.5948804616928101,-0.1474438309669495,-0.1118701696395874,0.3704476356506348,2,0.6447239347008201,0.2238459016283733,-0.04457241967806502,0.7295459460798013,0.3840855658054352,-0.9207567572593689,-0.06844811886548996,3.942840576171875,-47.57716369628906,14.50555419921875,2
1596229604.828555,41,0,101937.02641725,-1.042287625318424,1.331746504545709,1.143863075399117,-1.564179062843323,1.143766283988953,-0.5089794397354126,-0.08436360955238342,-0.01364028453826904,0.4101436138153076,2,0.6277428838803149,0.2385704622979448,-0.03923544457951977,0.739921368602207,0.4023063182830811,-0.9102399349212646,-0.09804601222276688,4.390182495117188,-47.66325378417969,13.310791015625,2
1596229604.869763,42,0,101937.05651125,-0.9220114893954119,1.266081735388244,1.115000977049083,-2.529747486114502,1.512208461761475,-0.5783166885375977,-0.1185778379440308,-0.4374637007713318,0.4874734282493591,2,0.6053440497842499,0.2598605374991924,-0.02402419476345519,0.7519666696296312,0.4198987185955048,-0.8979111909866333,-0.132062166929245,4.642608642578125,-48.40471649169922,10.34674072265625,2
1596229604.888542,43,0,101937.08660625,-0.698018202951987,1.160594487803349,1.034091652099633,-5.155616760253906,4.525556087493896,-1.777932524681091,0.002893239259719849,-0.460115909576416,-0.3462370634078979,2,0.5514549756613917,0.3065033038354381,0.006076293195135363,0.775832567054396,0.4688888788223267,-0.8593982458114624,-0.2039062678813934,5.358413696289062,-48.66425323486328,7.552154541015625,2
1596229604.929367,44,0,101937.11670025,-0.4745759524203659,1.122670532475884,0.9220963882818964,-5.651664733886719,5.383791446685791,-1.56206226348877,-0.9132281541824341,-0.04297560453414917,0.3129758834838867,2,0.4781289567365107,0.3748470430511191,0.05196758689894609,0.7925791795979393,0.5444974899291992,-0.7968699336051941,-0.261764794588089,7.946632385253906,-48.67107391357422,-0.782562255859375,2
1596229604.948685,45,0,101937.14679525,-0.2759437761052784,1.160408769634157,0.8031742690461071,-5.052013397216797,6.46907377243042,-1.879310727119446,-0.168190598487854,0.667158842086792,0.6451466083526611,2,0.393203190793782,0.4548246501467419,0.1063661620790214,0.7919672542950815,0.6367654204368591,-0.7195640206336975,-0.277051568031311,9.728385925292969,-48.04136657714844,-4.928985595703125,2
1596229604.988671,46,0,101937.17688925,-0.1355453794765952,1.223813258545569,0.7148584834337263,-3.288125276565552,3.99064564704895,-0.8637518882751465,0.6622355580329895,1.255544424057007,0.3091299533843994,2,0.3221700240416511,0.5174952695037764,0.1485827439408859,0.7786708573891338,0.7101791501045227,-0.6555105447769165,-0.2568102478981018,14.83620452880859,-45.60658264160156,-10.6278076171875,2
1596229605.009118,47,0,101937.20698325,-0.0750089253188323,1.268892813183706,0.6816558022893154,-0.7726114392280579,1.210838675498962,-0.5126641392707825,1.45569372177124,0.8530972003936768,-0.3817596435546875,2,0.2899761655447469,0.5481493924741377,0.169529728730884,0.7659671471418212,0.7414097189903259,-0.6300796866416931,-0.2308921366930008,16.47393798828125,-44.49337768554688,-12.24679565429688,2
1596229605.047563,48,0,101937.23707825,-0.04646700311234733,1.250687586510082,0.672471675208275,-0.9647470712661743,-0.8345847129821777,0.7620674967765808,1.055968403816223,-0.9866451621055603,-0.4661412239074707,2,0.2802650141232225,0.546233391657063,0.1753041478777491,0.7696420539736277,0.7425451278686523,-0.6229214668273926,-0.2461612075567245,17.46561431884766,-43.84654998779297,-13.10009765625,2
1596229605.070691,49,0,101937.26717225,0.02275078667113793,1.189015349802376,0.6953213298109515,-1.763051986694336,0.3580089509487152,1.40251612663269,-0.1534905433654785,-0.6144967675209045,-0.2279533743858337,2,0.2762353361130369,0.5297679127490087,0.1996733788042892,0.7766405138695371,0.7125647664070129,-0.6406322121620178,-0.286080002784729,16.342041015625,-43.61338043212891,-14.36758422851562,2
1596229605.109366,50,0,101937.29726725,0.1136207709012472,1.181178189352666,0.6950186090949433,-2.538135528564453,2.990670442581177,0.3044802248477936,-0.8928943276405334,0.4796890616416931,0.1251678466796875,2,0.2526868177353747,0.5387807845289799,0.2336763138712957,0.7689342884215022,0.7104802131652832,-0.6403997540473938,-0.2917292714118958,14.90862274169922,-43.46269989013672,-17.17205810546875,2
1596229605.129636,51,0,101937.32736125,0.198451734486552,1.252410443758051,0.6677884348434572,-2.124939918518066,5.089198589324951,-0.2484199851751328,-0.7365812063217163,0.7914195656776428,-0.08805131912231445,2,0.2093831804160539,0.5772890530081656,0.2669600204096404,0.7427167783314916,0.7457306385040283,-0.619251012802124,-0.2457920610904694,17.62123870849609,-41.82408905029297,-18.62060546875,2
1596229605.167901,52,0,101937.35745625,0.2634325128364209,1.385044334140159,0.6510412304720538,-1.333028316497803,5.845191955566406,0.09782637655735016,0.09668272733688354,0.5925674438476562,0.05165040493011475,2,0.1645483185371586,0.6320359541701435,0.2981913067086515,0.6960865117029766,0.7817696332931519,-0.6060149669647217,-0.1469088047742844,19.58894348144531,-41.09767150878906,-18.218505859375,2
1596229605.189626,53,0,101937.38755025,0.2989150010199162,1.501607248568458,0.6510286378684232,-0.5988096594810486,3.089083671569824,0.004482060670852661,0.6244413256645203,0.02618175745010376,-0.1726510524749756,2,0.1349593180852061,0.6740098918677442,0.3188922961976647,0.6525368003644556,0.7935575246810913,-0.6060049533843994,-0.05499329790472984,23.10150146484375,-40.23636627197266,-15.56582641601562,2
1596229605.22973,54,0,101937.41764525,0.3111052691194484,1.534621126931241,0.6512274073967401,-0.1150335520505905,-0.8317641019821167,0.2892179489135742,0.9795465469360352,-0.2061257362365723,0.09279513359069824,2,0.1255719517859863,0.6854553424083266,0.3250405238939166,0.6393208804987809,0.7948198914527893,-0.6061630845069885,-0.02876531705260277,23.93277740478516,-40.39960479736328,-14.8221435546875,2
1596229605.249944,55,0,101937.44773925,0.3068074188107993,1.478573800464834,0.6770077822012248,0.4685110449790955,-2.518367290496826,1.261494636535645,0.5109424591064453,0.02683174610137939,0.05407625436782837,2,0.1453955626848903,0.6655596152089184,0.3276185654185447,0.6546423063754978,0.7761383652687073,-0.6264635324478149,-0.07178106158971786,22.27855682373047,-40.78472900390625,-15.95526123046875,2
1596229605.290582,56,0,101937.47783325,0.3079726359722466,1.409564181104482,0.7164522515637067,-0.3284577429294586,-1.570937633514404,1.195150017738342,-0.6334614753723145,-0.1564446687698364,0.1955224275588989,2,0.1708595006541056,0.6405265555515787,0.3338832131117451,0.6701154472347692,0.7443592548370361,-0.6567133069038391,-0.1210655272006989,20.25050354003906,-41.47026824951172,-16.79144287109375,2
1596229605.309868,57,0,101937.50792825,0.3248614203486135,1.411334132325627,0.7282085510664742,-0.259678989648819,2.520195484161377,-0.4063955247402191,-0.9980481266975403,-0.2018285393714905,0.1687363386154175,2,0.1694924951695274,0.6418842927757944,0.3429398773396028,0.6645668359948342,0.7368985414505005,-0.6655336022377014,-0.1185136958956718,18.64376068115234,-41.68295288085938,-17.67758178710938,2
1596229605.349523,58,0,101937.53802225,0.3355864782874158,1.508212908473456,0.7053832035042218,-0.5012497901916504,3.460129261016846,-0.5998246669769287,-0.07036930322647095,0.2857398390769958,0.39500892162323,2,0.1409373184283168,0.6755204433699058,0.3474054350769972,0.6349158941536323,0.7598725557327271,-0.6483256220817566,-0.04761760681867599,20.00408935546875,-41.52981567382812,-16.64797973632812,2
1596229605.369919,59,0,101937.56811725,0.3535171171709258,1.556604580780094,0.7094115288125097,-0.1586344093084335,0.5893047451972961,0.8711883425712585,0.4802127480506897,0.1896447539329529,-0.200497031211853,2,0.1277043506828699,0.6915980189737727,0.3574619086016544,0.6144954636819061,0.7586687803268433,-0.6513873934745789,-0.0107675576582551,22.26591491699219,-41.06710052490234,-14.86859130859375,2
1596229605.4108,60,0,101937.59821125,0.3483860884778574,1.556773535950444,0.7383578772206363,0.1260728240013123,-0.6194438338279724,0.6766082048416138,0.2682347893714905,-0.1162000894546509,-0.2918261289596558,2,0.1395637666560071,0.6894466429574253,0.364622490366215,0.6101112316640831,0.7395021319389343,-0.6730743646621704,-0.01037056278437376,21.53997039794922,-41.53916931152344,-14.97454833984375,2
1596229605.430362,61,0,101937.62830625,0.352331791641071,1.534676205074414,0.7406335031596626,-0.2297142744064331,-0.3457074165344238,-0.3769424557685852,-0.2351226806640625,-0.1456854939460754,-0.2213881611824036,2,0.1430385271416352,0.6827985092934028,0.3649493708519019,0.6165535580223958,0.7375600337982178,-0.6747555732727051,-0.02665235102176666,20.49742126464844,-41.83433532714844,-15.45193481445312,2
1596229605.468263,62,0,101937.65840025,0.3602967590184023,1.539292298268915,0.7313605112055238,-0.1876392960548401,0.843199610710144,-0.03988620638847351,-0.2070590257644653,0.03851234912872314,-0.001723766326904297,2,0.1362053094080028,0.6853658550948245,0.3649776959507801,0.6152342188695699,0.7438972592353821,-0.6678828597068787,-0.02344351634383202,20.69467926025391,-41.70253753662109,-15.50717163085938,2
1596229605.49044,63,0,101937.68849425,0.3662903702266388,1.555545425011495,0.7371723473813684,-0.06187937408685684,0.4956481158733368,0.2721475958824158,-0.0860447883605957,0.05049824714660645,-0.0018157958984375,2,0.1331988063860358,0.6903713670227276,0.3696338883065342,0.6074670826207268,0.7402861714363098,-0.6721971035003662,-0.01129090692847967,21.1973876953125,-41.59951019287109,-15.28912353515625,2
1596229605.529379,64,0,101937.71858825,0.3663153261334859,1.568986317536615,0.7392650229266022,-0.01074383780360222,0.2883585095405579,-0.1504337042570114,0.05523467063903809,-0.07674819231033325,0.1342780590057373,2,0.1314307429104473,0.6943033878030218,0.371157418770561,0.6024209483520242,0.7389628291130066,-0.6737449765205383,-0.001337531022727489,21.11448669433594,-41.56829071044922,-15.09164428710938,2
1596229605.550633,65,0,101937.74868325,0.3664567370321444,1.568245182437198,0.7340959493723559,0.03682321682572365,-0.2829333543777466,-0.05683133006095886,0.1658525466918945,0.0138700008392334,0.03965747356414795,2,0.1297208920996251,0.6944245527658839,0.3695970698212448,0.6036100537468644,0.7424343824386597,-0.6699162125587463,-0.001894061337225139,21.45323181152344,-41.65423583984375,-15.02728271484375,2
1596229605.592117,66,0,101937.77877725,0.3624771869350232,1.557607975321484,0.7412066840061443,0.1778516471385956,-0.6389873623847961,0.5033656358718872,0.3040007352828979,0.05017757415771484,-0.1243100166320801,2,0.1355438689494984,0.6904808305701708,0.3698196449541045,0.6067104648726218,0.7375903129577637,-0.6751785278320312,-0.009728164412081242,21.39955139160156,-41.60084533691406,-15.21060180664062,2
1596229605.610607,67,0,101937.80887225,0.3542279507744818,1.542631406723958,0.75670500012157,0.2093041092157364,-0.6449558734893799,0.4072359204292297,0.05756568908691406,0.03850138187408447,-0.1767587065696716,2,0.1465755810126064,0.6843080945157516,0.370858197421918,0.6104933747726021,0.7268136143684387,-0.6865293979644775,-0.02047606185078621,20.41178894042969,-42.12109375,-15.14886474609375,2
1596229605.651085,68,0,101937.83896625,0.3418651957577929,1.535771189021306,0.7657551056790269,0.4232602119445801,-0.3136277496814728,0.209735095500946,-0.2461487650871277,-0.03701281547546387,-0.116599977016449,2,0.1552378208310621,0.6806465321741906,0.3692279740965821,0.6134266754997668,0.7204172015190125,-0.6930814981460571,-0.02524303458631039,19.68079376220703,-42.76612091064453,-15.09170532226562,2
1596229605.670908,69,0,101937.86906025,0.3224920335896931,1.550441943938365,0.7700992263939449,0.4301629960536957,0.2788809239864349,0.02908116206526756,-0.3242751359939575,-0.1184105277061462,0.05126053094863892,2,0.1606657531595261,0.683287207968688,0.3657438974750179,0.611176351993164,0.7176929116249084,-0.6962064504623413,-0.01461021415889263,19.43032836914062,-42.85758972167969,-14.82406616210938,2
1596229605.711538,70,0,101937.89915525,0.3048793810462082,1.566765651302083,0.7689558004927509,0.444747656583786,-0.1964410245418549,-0.05753842741250992,0.01879864931106567,-0.09022068977355957,-0.007575035095214844,2,0.1633359803639325,0.6869301744487353,0.3613493941256572,0.6089950669445122,0.7186314463615417,-0.695385217666626,-0.002896585967391729,19.24234771728516,-43.17045593261719,-13.93295288085938,2
1596229605.731492,71,0,101937.92924925,0.2841734314143516,1.562883324902903,0.7700429403434716,0.4539331197738647,-0.9400239586830139,0.1312075257301331,0.2454425692558289,-0.06832653284072876,-0.1756526231765747,2,0.1715021197635853,0.6839201387939776,0.3550244854028127,0.6138386946546971,0.7178583741188049,-0.6961660385131836,-0.00568053312599659,19.27240753173828,-43.16755676269531,-13.69573974609375,2
1596229605.771099,72,0,101937.95934425,0.2708529501102549,1.535531726575821,0.7762075636274778,0.2581241130828857,-1.430094957351685,0.2900227606296539,0.4047881960868835,0.05884009599685669,-0.1619424819946289,2,0.1829801070858142,0.6737498847002912,0.3503396591833225,0.6243729646452856,0.7131320238113403,-0.7005782723426819,-0.02515874616801739,18.59763336181641,-43.39563751220703,-14.048828125,2
1596229605.791363,73,0,101937.98943825,0.2556599331763735,1.498728251837108,0.7915999438222491,0.5263274908065796,-1.788812518119812,0.7174447178840637,0.1813744306564331,0.01916515827178955,0.08029663562774658,2,0.199840144895649,0.6593666885110397,0.346597999989844,0.6365290739024348,0.7008837461471558,-0.7114784717559814,-0.05059897154569626,17.82678985595703,-43.59668731689453,-14.32418823242188,2
1596229605.831641,74,0,101938.01953325,0.2339484920875246,1.453087514155597,0.8164811882584179,0.5734114050865173,-2.142350196838379,0.6470674872398376,-0.2818611860275269,-0.1459144353866577,0.2484680414199829,2,0.2235594294080746,0.6401650436109798,0.3419847740197221,0.6505816045760007,0.6800513863563538,-0.7287406921386719,-0.08041979372501373,15.36909484863281,-44.29020690917969,-14.62432861328125,2
1596229605.851442,75,0,101938.04962725,0.2103534045156006,1.405216444784136,0.8250127246578763,0.6429364085197449,-2.329331874847412,-0.2492410093545914,-0.3338455557823181,-0.07564437389373779,0.2312495708465576,2,0.2421145271922485,0.6208542507330286,0.3310367555956948,0.6680831312004586,0.6692668795585632,-0.7345564365386963,-0.1118411123752594,14.38399505615234,-44.67807769775391,-14.67962646484375,2
1596229605.892992,76,0,101938.07972225,0.1627963525995758,1.35305957974749,0.8163384840355197,1.304633140563965,-3.673720836639404,-0.6154176592826843,0.04419320821762085,0.09559428691864014,-0.01887309551239014,2,0.2617567500803611,0.5979196419327115,0.305882958313222,0.693117011153948,0.6687226891517639,-0.728643000125885,-0.1479510068893433,13.33898162841797,-45.17332458496094,-14.83062744140625,2
1596229605.911742,77,0,101938.10981625,0.1076672672760543,1.257686231515628,0.8092039709081688,0.9445896744728088,-5.421253204345703,-0.3946525752544403,0.5097253322601318,0.106432318687439,-0.06638550758361816,2,0.28879457934829,0.5570633854978189,0.2712162399151518,0.7298765985723553,0.6565235257148743,-0.7237380743026733,-0.2125561535358429,12.57852935791016,-45.00149536132812,-14.72003173828125,2
1596229605.950916,78,0,101938.13991125,0.05088710433376981,1.119311372160887,0.8152437547708055,1.897573471069336,-6.1689772605896,-0.3483569025993347,0.3877257704734802,0.1588597297668457,0.09594762325286865,2,0.3234389389210264,0.495785231850927,0.230185882150175,0.7723980922597885,0.6169849634170532,-0.7278927564620972,-0.2991685271263123,10.03475189208984,-45.67153930664062,-15.29409790039062,2
1596229605.971967,79,0,101938.17000525,-0.057725184254218,1.015795813566982,0.8379827113322653,2.987547397613525,-6.196375370025635,-0.6159932017326355,0.1574746370315552,0.2390878200531006,0.5334320664405823,2,0.3681564846294448,0.4338291390545052,0.1747458996756762,0.8035651127005423,0.5685522556304932,-0.7432951331138611,-0.352506160736084,8.53814697265625,-46.10506439208984,-14.66256713867188,2
1596229606.00908,80,0,101938.20010025,-0.1907108267247019,0.9139565894098736,0.8876415288640777,3.502245426177979,-7.210955142974854,0.1912596821784973,0.2738555073738098,0.1451892852783203,0.5776147842407227,2,0.4215232117797362,0.3599920147965423,0.111440455302951,0.8248060487767749,0.4998977184295654,-0.7755851149559021,-0.3854478597640991,6.204299926757812,-47.67703247070312,-11.03814697265625,2
1596229606.03224,81,0,101938.23019425,-0.2946412229486564,0.7725489130120639,0.9671943377316464,2.970115661621094,-7.750052452087402,0.909984827041626,0.461692750453949,0.4428480863571167,0.8953036069869995,2,0.4750017911037303,0.2667027520803684,0.05289364621753129,0.8369259675192057,0.3961717784404755,-0.8232964277267456,-0.4064858853816986,4.391227722167969,-48.44854736328125,-8.68133544921875,2
1596229606.071403,82,0,101938.26028925,-0.3421039291949973,0.5809018960760426,1.044710876424359,2.197600364685059,-6.740803718566895,0.8041923642158508,-0.1411701440811157,0.1025577783584595,0.3027443289756775,2,0.5132965149571974,0.16320282733675,-0.0005423854147738605,0.8425504582505148,0.2755700349807739,-0.8647794127464294,-0.4197830557823181,0.8125534057617188,-49.31340789794922,-4.188995361328125,2
1596229606.092443,83,0,101938.29038325,-0.3737334675719875,0.4617636234016506,1.105385635147531,1.768433928489685,-3.136196136474609,0.4027237296104431,-0.665037989616394,-0.01369321346282959,0.1322264075279236,2,0.5383376625768452,0.09643132618945632,-0.03588194240410342,0.836424493325773,0.199948251247406,-0.8936372995376587,-0.401787132024765,-0.3883819580078125,-49.427490234375,-2.21405029296875,2
1596229606.130562,84,0,101938.32047825,-0.3843692140515862,0.4261124787888431,1.140613676159112,0.5851360559463501,0.02539246901869774,0.3469781577587128,-0.7137740850448608,0.1328495740890503,0.1470165252685547,2,0.5519635117682532,0.07391704186504644,-0.04508234916958848,0.8293612540120003,0.1723754853010178,-0.9088895916938782,-0.3797450959682465,-1.495231628417969,-49.68836975097656,0.89013671875,2
1596229606.155905,85,0,101938.35057225,-0.3821114988538454,0.4497471501125109,1.173057880487574,1.182144403457642,1.189314007759094,0.6652871966362,-0.129641205072403,0.1261139512062073,-0.2410426139831543,2,0.5649874016144718,0.07988013796207416,-0.03300606984269322,0.8205602323857633,0.1683889627456665,-0.9219393134117126,-0.3488168120384216,-2.504661560058594,-49.52449798583984,2.562164306640625,2
1596229606.186704,86,0,101938.38066625,-0.3553304202793151,0.4445509225555357,1.190150649108015,-0.3103181719779968,-0.1144672557711601,0.3391242623329163,0.1916654407978058,-0.1882826685905457,-0.4487199187278748,2,0.5704368123945925,0.08304857191494583,-0.02111985621419088,0.8168590056676424,0.1597730368375778,-0.9284249544143677,-0.335409551858902,-3.131256103515625,-49.57206726074219,3.22943115234375,2
1596229606.212632,87,0,101938.41076125,-0.3358032177064361,0.4367353434150436,1.193293516359751,0.5054196119308472,1.074012756347656,0.2297474443912506,-0.08904412388801575,-0.08453452587127686,-0.4909327030181885,2,0.5707630494161066,0.08502004254352677,-0.01494756319028512,0.8165644952449695,0.1559117287397385,-0.9295880198478699,-0.3340022563934326,-3.870994567871094,-49.50859069824219,3.195404052734375,2
1596229606.248476,88,0,101938.44085525,-0.3598823992929248,0.4896659344520153,1.2261895285513,1.70950448513031,0.3130100071430206,0.2829840481281281,-0.4864258170127869,0.1958711743354797,-0.14898681640625,2,0.5847089602310673,0.09513699311907106,-0.004788532933972078,0.8056311401993411,0.1588904410600662,-0.9412083625793457,-0.298128753900528,-4.038909912109375,-49.48329162597656,4.010528564453125,2
1596229606.27287,89,0,101938.47095025,-0.4194032866943331,0.5414636533218777,1.265632925123544,0.6652758121490479,-0.1026911363005638,-0.3133645951747894,-0.5580137968063354,-0.7585196495056152,-0.157698929309845,2,0.602283677430102,0.09229727844462962,-0.007043238415889219,0.7928971435662087,0.1548485457897186,-0.9537978768348694,-0.2574711740016937,-4.401931762695312,-49.22759246826172,6.67840576171875,2
1596229606.308385,90,0,101938.50104425,-0.5059124055907739,0.6279831773566752,1.267648264992455,1.011970043182373,0.5356931090354919,-0.8016176223754883,-0.0693354606628418,0.1749072670936584,0.01044028997421265,2,0.6076335279087303,0.09997861151169599,-0.0147041613336602,0.7877623602514097,0.1753882616758347,-0.954401433467865,-0.2415715456008911,-3.969802856445312,-49.10952758789062,7.13018798828125,2
1596229606.33318,91,0,101938.53113925,-0.6286747822817736,0.7618582162087132,1.294624490780886,1.439221143722534,0.06022400036454201,0.3178605139255524,0.1723485887050629,0.4736086130142212,0.08177036046981812,2,0.624084614361717,0.1089543105187544,-0.01574472567920943,0.7735627650978277,0.1882180720567703,-0.9621063470840454,-0.1972947120666504,-3.172836303710938,-49.03708648681641,9.27862548828125,2
1596229606.372446,92,0,101938.56123325,-0.6873937743178139,0.8139562651489946,1.334926319291392,1.208956956863403,-0.07759019732475281,0.4955069422721863,0.05514326691627502,-0.2120654582977295,0.1298016309738159,2,0.6399516201705615,0.1011592294714602,-0.01234699793500549,0.7616274363789088,0.1698942482471466,-0.9723113775253296,-0.1604574620723724,-3.482017517089844,-48.49958801269531,10.74847412109375,2
1596229606.393367,93,0,101938.59132825,-0.767045342107986,0.8893647873334392,1.345742220738926,0.1924468278884888,-0.1146899536252022,-0.6365035176277161,0.04173719882965088,-0.1683934926986694,0.2160024642944336,2,0.64763025505253,0.1014422111008421,-0.01554988723477041,0.7550117188737581,0.1733212769031525,-0.9747820496559143,-0.1405690610408783,-3.814506530761719,-48.38763427734375,12.398193359375,2
1596229606.429946,94,0,101938.62142225,-0.8643280644480195,0.9818766240920324,1.343694810901215,1.014287233352661,-0.0325949601829052,-0.09247026592493057,-0.008362263441085815,0.1393845081329346,-0.02604150772094727,2,0.6529995635660512,0.1051622188466353,-0.02262565955004187,0.7496803038420786,0.1872251778841019,-0.9743230938911438,-0.125064954161644,-3.514640808105469,-48.47695922851562,12.84371948242188,2
1596229606.453431,95,0,101938.65151725,-0.9546697813058546,1.074427115106173,1.36075858293694,0.4329372048377991,0.3329478800296783,0.167098194360733,0.06183311343193054,-0.04836416244506836,0.232299268245697,2,0.6628134217992419,0.1050307416630152,-0.02086638958118675,0.7410880938612705,0.1833351105451584,-0.9780230522155762,-0.09929382055997849,-2.952308654785156,-47.86360168457031,14.491455078125,2
1596229606.487171,96,0,101938.68161125,-0.9744624755454131,1.098969358228114,1.361220154593797,0.004935925826430321,-0.09840056300163269,-0.24577596783638,0.004163384437561035,-0.1254152059555054,0.1897673606872559,2,0.6642160552970178,0.1074110486728523,-0.01991086820537807,0.7395157529041673,0.1853145658969879,-0.9781191945075989,-0.09455979615449905,-3.352134704589844,-47.68360900878906,14.65087890625,2
1596229606.51357,97,0,101938.7117062917,-1.002679848709586,1.122896525559194,1.356405458088094,0.2036173194646835,-0.0379449762403965,-0.0824168473482132,0.1050633192062378,0.06331688165664673,0.06782072782516479,2,0.6649776548309373,0.1083331900781971,-0.02386596806328045,0.7385790449632086,0.1917659193277359,-0.9771061539649963,-0.09213727712631226,-2.918487548828125,-47.95710754394531,14.86627197265625,2
1596229606.550006,98,0,101938.7418002917,-1.017639391275555,1.138402459438264,1.361542345861481,0.07186795026063919,-0.04654251411557198,0.1768227219581604,-0.004105895757675171,0.01062452793121338,0.1239275932312012,2,0.6670232941190275,0.1074981398374767,-0.02262428692405516,0.7368935266557204,0.1886112242937088,-0.9781861305236816,-0.08704815059900284,-2.818992614746094,-47.91139984130859,14.95013427734375,2
1596229606.573885,99,0,101938.7718952917,-1.021792506637667,1.140894297526892,1.360877792027352,0.01764033362269402,0.04695721715688705,-0.244553804397583,-0.03371796011924744,-0.02789157629013062,0.06903862953186035,2,0.6671400773657266,0.1072358038702334,-0.02353108977913088,0.7367977713553089,0.1894192695617676,-0.9780479073524475,-0.08684919774532318,-2.981826782226562,-47.43252563476562,14.9632568359375,2
1596229606.607315,100,0,101938.8019892917,-1.034579688754302,1.152237250184345,1.35480087738846,-0.02523056417703629,-0.2670180201530457,-0.1177932173013687,-0.05285194516181946,0.04838252067565918,0.06074190139770508,2,0.6667520681429364,0.1090282757891357,-0.02636422084357565,0.7367899341035039,0.1958186626434326,-0.9767635464668274,-0.0871090292930603,-2.6422119140625,-47.53090667724609,14.9407958984375,2
1596229606.637599,101,0,101938.8320842917,-1.047019939860866,1.158557314339169,1.352497143713642,0.1159875392913818,-0.01315426547080278,-0.1668198704719543,-0.04879584908485413,0.01200640201568604,0.04506415128707886,2,0.6670584028495241,0.1079238234719672,-0.02956495960980299,0.7365537477871397,0.1984264999628067,-0.9762672185897827,-0.08677107095718384,-2.419662475585938,-47.94967651367188,15.2647705078125,2
1596229606.669859,102,0,101938.8621782917,-1.069993064311593,1.181205236407952,1.347670637639783,0.03491393104195595,0.06467763334512711,-0.2339863926172256,-0.04153907299041748,0.01121008396148682,0.02319705486297607,2,0.6677237039696289,0.1101047095997774,-0.03199497207144952,0.7355259021287079,0.2046973407268524,-0.9752105474472046,-0.08404401689767838,-2.119979858398438,-47.48448944091797,15.45904541015625,2
1596229606.694303,103,0,101938.8922732917,-1.078002003299514,1.196899466504121,1.343232108639196,-0.08277615159749985,0.2655568718910217,-0.05754877999424934,0.1032769381999969,-0.01928997039794922,0.1291832327842712,2,0.6675820375547242,0.1146018767495577,-0.03112149239435819,0.7350047763708354,0.2100181579589844,-0.9742187857627869,-0.08240126818418503,-1.887405395507812,-47.62939453125,15.23663330078125,2
1596229606.730279,104,0,101938.9223672917,-1.054144519721842,1.172969562680407,1.340573231517454,-0.2391640394926071,-0.2053751647472382,-0.02392024174332619,0.02527934312820435,-0.04535281658172607,-0.03793454170227051,2,0.6653328234501701,0.1145820512806467,-0.0311652247937208,0.7370427448262973,0.2103742361068726,-0.9736155271530151,-0.08840637654066086,-1.814613342285156,-47.56731414794922,15.05575561523438,2
1596229606.754327,105,0,101938.9524622917,-1.045038753347859,1.159614541028018,1.337187128902235,-0.02366649359464645,-0.08653770387172699,-0.1423294246196747,-0.03081077337265015,0.09187412261962891,0.004660606384277344,2,0.6639286255646422,0.1137378914936261,-0.03331662212181369,0.7383443988659887,0.2121951878070831,-0.9728372097015381,-0.0925249457359314,-1.644859313964844,-47.60499572753906,14.96710205078125,2
1596229606.787643,106,0,101938.9825562917,-1.04086627054271,1.153976910975549,1.332901848717442,-0.211401104927063,-0.1162692233920097,0.005843798629939556,0.06853699684143066,-0.04381418228149414,0.02099317312240601,2,0.662733875493779,0.114369899461245,-0.03499606319515242,0.7392419025084519,0.2154801934957504,-0.9718363285064697,-0.095406673848629,-1.495887756347656,-47.58268737792969,14.69485473632812,2
1596229606.81456,107,0,101939.0126512917,-1.017892813239827,1.12630187369055,1.331767918172091,-0.07476289570331573,-0.1589086800813675,0.00204690801911056,-0.004144608974456787,0.04049420356750488,-0.1051516532897949,2,0.6607084358717131,0.1120762775509902,-0.03600357099984047,0.7413548135731329,0.2137522995471954,-0.9715684652328491,-0.1018065437674522,-1.443885803222656,-47.66255950927734,14.580078125,2
1596229606.849197,108,0,101939.0427452917,-1.019392280999819,1.12775036717216,1.330981487585795,0.01445738971233368,0.1961351782083511,0.001843187725171447,-0.0125773549079895,0.07030391693115234,-0.0253756046295166,2,0.6606536295845599,0.1123587587702935,-0.03632540333684314,0.7413452995669181,0.2145902961492538,-0.9713819622993469,-0.1018245816230774,-1.392364501953125,-47.88668823242188,14.50521850585938,2
1596229606.874735,109,0,101939.0728402917,-1.013240848354192,1.128370461478755,1.332595399469004,-0.01996057108044624,0.1157500892877579,0.1320885419845581,-0.001042932271957397,-0.08610796928405762,-0.01468592882156372,2,0.6606550050941269,0.1141267655047609,-0.0333391846897651,0.7412142692098583,0.2132361680269241,-0.9717640280723572,-0.1010200902819633,-1.404754638671875,-47.62735748291016,14.51034545898438,2
1596229606.906931,110,0,101939.1029342917,-1.005540486486566,1.125313276798384,1.334141062139073,-0.008532943204045296,0.2467293739318848,-0.06413824856281281,-0.05202871561050415,0.0686180591583252,0.06301629543304443,2,0.660490612191988,0.1150653284616622,-0.03101566268290179,0.7413165525747138,0.2115707695484161,-0.9721276164054871,-0.1010242402553558,-1.731407165527344,-47.85102844238281,14.49728393554688,2
1596229606.937625,111,0,101939.1330292917,-1.014689949028061,1.143352380471691,1.332555023345365,-0.02774292789399624,0.2435444891452789,0.07642153650522232,0.1986905634403229,0.03532677888870239,-0.04224038124084473,2,0.6609644129961911,0.1192093551335923,-0.02893828365653678,0.7403227225772457,0.2147611379623413,-0.9717544913291931,-0.09783034771680832,-1.806053161621094,-47.76356506347656,14.28079223632812,2
1596229606.967839,112,0,101939.1631232917,-0.9922625421563328,1.118272008337559,1.336928068400338,-0.1086045503616333,-0.3494635820388794,0.1400788128376007,-0.05676683783531189,-0.04852175712585449,0.03661966323852539,2,0.6602141185639666,0.1159922227244367,-0.02755708405386686,0.7415549167183341,0.2084163576364517,-0.972777247428894,-0.1013262420892715,-2.001731872558594,-47.94964599609375,14.32742309570312,2
1596229606.995163,113,0,101939.1932182917,-0.9825687304730806,1.102629541958973,1.331660768295789,-0.145440861582756,-0.00230165827088058,-0.2880067527294159,-0.1145442426204681,0.04519867897033691,0.0742948055267334,2,0.6582853627719711,0.1149703608685153,-0.03073127303610951,0.7433018553701691,0.2113752663135529,-0.9715430736541748,-0.1068843975663185,-1.874107360839844,-47.71340179443359,14.3798828125,2
1596229607.028198,114,0,101939.2233122917,-0.9883985333647476,1.11421008691312,1.327024851240822,0.03459128737449646,0.3114109039306641,0.006799604743719101,0.02755177021026611,0.04254996776580811,-0.0257454514503479,2,0.6577922557426665,0.1187526908354781,-0.03050871357491736,0.7431529896393012,0.2166396230459213,-0.9704346060752869,-0.106414295732975,-1.766220092773438,-47.78761291503906,14.19970703125,2
1596229607.055344,115,0,101939.2534072917,-0.9820327428747423,1.114490330300725,1.327582884446694,-0.1026925295591354,-0.02680364064872265,-0.0007342309691011906,0.1119984686374664,-0.02886241674423218,-0.05093556642532349,2,0.6575364897237453,0.1207818468820605,-0.0278798372932374,0.7431556188256651,0.2161834388971329,-0.9705691337585449,-0.1061150208115578,-1.66064453125,-47.71828460693359,14.05801391601562,2
1596229607.087993,116,0,101939.2835012917,-0.9689022312828417,1.095422400065085,1.328070100704622,-0.05659908056259155,-0.001438403036445379,0.1280304193496704,-0.02046456933021545,-0.04038584232330322,-0.07130533456802368,2,0.6565888391870993,0.1178581849964173,-0.02911217445165654,0.7444145351357745,0.213700145483017,-0.9706863164901733,-0.1100010871887207,-2.036422729492188,-48.28312683105469,13.8719482421875,2
1596229607.115626,117,0,101939.3135962917,-0.9750356185350236,1.09979621571887,1.328919935388899,0.05643859505653381,-0.1081354692578316,-0.05618762597441673,0.08176940679550171,0.09765321016311646,-0.1247413158416748,2,0.6572021368642874,0.1172170295220504,-0.02969911406092185,0.7439512678007377,0.2134441584348679,-0.97089022397995,-0.1086910367012024,-1.8231201171875,-47.97802734375,14.09298706054688,2
1596229607.147045,118,0,101939.3436912917,-0.9730411718942563,1.091570811241755,1.327795676935124,0.008761024102568626,-0.3977784812450409,0.06676517426967621,0.03925177454948425,-0.01706141233444214,0.003535568714141846,2,0.6567100431520949,0.1151473444525994,-0.03200078449074478,0.7446132136742223,0.2135109454393387,-0.970620334148407,-0.1109460145235062,-1.859970092773438,-47.984375,13.90850830078125,2
1596229607.175687,119,0,101939.3737852917,-0.9688355062251617,1.075639066259398,1.324367196049414,-0.2778697609901428,-0.3349173069000244,-0.3740982115268707,-0.1009489595890045,0.02524858713150024,0.07020008563995361,2,0.6554280481905108,0.1116111146762585,-0.0366977538676963,0.7460631619357295,0.2146433591842651,-0.9697896838188171,-0.1159140691161156,-1.386871337890625,-48.06076812744141,13.79830932617188,2
1596229607.209241,120,0,101939.4038802917,-0.9660454801916882,1.066317691323496,1.307835702753514,-0.193975567817688,0.04796350002288818,-0.4246585965156555,-0.1312022507190704,-0.009687662124633789,0.06304407119750977,2,0.6513039764056514,0.1139379883884656,-0.04367624263114406,0.7489416822510108,0.2275588363409042,-0.9656246304512024,-0.1256425231695175,-1.088119506835938,-48.20289611816406,13.4853515625,2
1596229607.237492,121,0,101939.4339742917,-0.9780731662515321,1.082110489754135,1.297829279722718,0.03768794238567352,0.1205804422497749,-0.2508604228496552,-0.0298784077167511,0.06640869379043579,0.01784986257553101,2,0.6500608685474989,0.1189087138636435,-0.04606019284019292,0.749106133203209,0.2380343526601791,-0.9629752635955811,-0.1265631765127182,-0.2793502807617188,-48.18378448486328,13.16644287109375,2
1596229607.269714,122,0,101939.4640692917,-0.9864872852229145,1.092944199869259,1.293648623214185,-0.04308712854981422,-0.0318320132791996,-0.03767227381467819,0.07080858945846558,0.04209530353546143,0.01377779245376587,2,0.6498685314660299,0.1214794709803487,-0.04695985671624309,0.7488046012933423,0.2429642379283905,-0.9618397951126099,-0.1258272528648376,0.007720947265625,-48.07819366455078,13.29833984375,2
1596229607.296089,123,0,101939.4941632917,-0.9821876103423509,1.085960187859759,1.295628168843182,0.004973540548235178,-0.05267616733908653,0.1129499897360802,0.05890116095542908,-0.01581466197967529,-0.0252455472946167,2,0.6498941324157342,0.1196697209244995,-0.04701744768749916,0.7490701964887931,0.2403947710990906,-0.962379515171051,-0.1266335546970367,0.0138397216796875,-48.40239715576172,13.27841186523438,2
1596229607.330271,124,0,101939.5242582917,-0.9803407415630526,1.083025459890882,1.294666481746302,-0.04138969630002975,-0.06465308368206024,-0.1250330060720444,0.03423449397087097,-0.002652168273925781,-0.05036729574203491,2,0.6494950703536984,0.1194571360917184,-0.04757061474622359,0.7494152924892976,0.2408397644758224,-0.9621177911758423,-0.1277722865343094,-0.0609283447265625,-48.34474945068359,13.13079833984375,2
1596229607.356456,125,0,101939.5543522917,-0.9817327193608858,1.082637622442059,1.291259829088224,-0.06562385708093643,-0.04976414889097214,-0.01934917084872723,0.04424706101417542,0.05920600891113281,-0.01935791969299316,2,0.6487903884005354,0.1198751725469663,-0.04925038723956165,0.7498502145543569,0.2436832040548325,-0.9611834287643433,-0.1294019520282745,-0.1104354858398438,-48.04551696777344,12.982666015625,2
1596229607.387884,126,0,101939.5844472917,-0.9702565190825,1.071119587932938,1.293279361588236,-0.02752507477998734,0.01158068981021643,0.1910950988531113,0.08567836880683899,0.0001983642578125,0.01563090085983276,2,0.6482909602811754,0.1186761728202173,-0.04807064165269848,0.7505490703998384,0.2404721081256866,-0.961738646030426,-0.1312695890665054,-0.1003875732421875,-48.11565399169922,13.01431274414062,2
1596229607.41642,127,0,101939.6145412917,-0.9622064467284235,1.062355426894762,1.297842374737503,0.04715794324874878,-0.1137071922421455,0.1196531802415848,0.05271515250205994,0.002370238304138184,-0.01563936471939087,2,0.6486722251057281,0.1166496064924717,-0.04652138032874081,0.7506350237562172,0.2354768216609955,-0.9629787802696228,-0.131234422326088,-0.4875946044921875,-48.33172607421875,13.10739135742188,2
1596229607.446971,128,0,101939.6446362917,-0.9641554834981919,1.058752763167102,1.299470807785639,-0.0001614997163414955,-0.2101537883281708,-0.008245925419032574,-0.02145329117774963,0.003409087657928467,0.03863978385925293,2,0.6490801175439895,0.1141853619368321,-0.04793428296915803,0.7505724276331762,0.2336351424455643,-0.9634165167808533,-0.1313134133815765,-0.425506591796875,-48.21736907958984,13.14898681640625,2
1596229607.476724,129,0,101939.6747302917,-0.9606957129703447,1.052095676726398,1.297686232702584,-0.08570163697004318,-0.001605814788490534,-0.05727179348468781,-0.02929249405860901,-0.01215279102325439,0.04559296369552612,2,0.6483028511672876,0.1133331057529682,-0.04932750509682887,0.7512827945031022,0.2342487424612045,-0.9629366993904114,-0.1337180435657501,-0.4072189331054688,-48.24554443359375,13.15142822265625,2
1596229607.509241,130,0,101939.704825625,-0.9585027004284647,1.050678942558919,1.293650178931829,-0.07729096710681915,0.02089285105466843,-0.1292620897293091,-0.02542024850845337,0.01728397607803345,0.0003542900085449219,2,0.6471899547840956,0.1146955410772208,-0.05016474262856219,0.7519798006435281,0.2374296933412552,-0.9618402123451233,-0.1359801888465881,-0.1918182373046875,-48.26205444335938,13.08001708984375,2
1596229607.537628,131,0,101939.734919625,-0.9588675030840829,1.051076053721888,1.290097931849953,-0.01599838584661484,-0.0401151143014431,-0.08406266570091248,0.009561330080032349,0.03753292560577393,-0.02971470355987549,2,0.6463795382580277,0.1157687793200268,-0.05123148986908016,0.7524404433266169,0.2404481917619705,-0.9608622193336487,-0.1375821679830551,0.06664276123046875,-48.16075134277344,12.966552734375,2
1596229607.571836,132,0,101939.765014625,-0.9654861641710081,1.056645602459069,1.288050595279386,0.03422869741916656,0.008408617228269577,-0.1112314537167549,-0.009913384914398193,0.02018707990646362,0.0202593207359314,2,0.6464244275825122,0.1163258934230475,-0.05253159572764599,0.7522260501379838,0.2429221421480179,-0.9602929949760437,-0.137207493185997,0.2778167724609375,-48.28046417236328,12.8482666015625,2
1596229607.596965,133,0,101939.795108625,-0.9734582377612632,1.06252965647119,1.287248890838167,0.03999651223421097,-0.1516231149435043,0.03145089372992516,0.06496146321296692,-0.01304531097412109,-0.05509072542190552,2,0.6468561289523814,0.1161974133450157,-0.05386693263705861,0.7517803358781847,0.2443981766700745,-0.9600690603256226,-0.1361506134271622,0.4237060546875,-48.12407684326172,12.89407348632812,2
1596229607.629245,134,0,101939.825203625,-0.9683500307022628,1.052242750868273,1.289954971696665,-0.01143698859959841,-0.1538032293319702,0.1058827862143517,0.01379489898681641,0.004533886909484863,-0.02986925840377808,2,0.6469194436900594,0.1131835841541941,-0.05446358863379236,0.7521426066074218,0.240727499127388,-0.960822582244873,-0.1373694241046906,0.3093185424804688,-47.90833282470703,12.72320556640625,2
1596229607.657148,135,0,101939.855297625,-0.9678701126993324,1.050179603164493,1.290698589884439,0.02603421732783318,-0.001237380318343639,-0.0389133095741272,-0.08291482925415039,0.05131226778030396,0.04583483934402466,2,0.6470113677490895,0.1123439828753295,-0.05472849309960387,0.7521701363165978,0.2398234903812408,-0.9610283970832825,-0.1375102400779724,0.4791641235351562,-48.13280487060547,12.93655395507812,2
1596229607.687565,136,0,101939.885392625,-0.9769830163773655,1.057335889009161,1.291623968701963,0.09575511515140533,-0.08868442475795746,0.03700916841626167,-0.008718729019165039,0.0109214186668396,-0.01759892702102661,2,0.6479363857730875,0.1118107427144723,-0.05556044888949446,0.7513919299295442,0.2400266528129578,-0.961283802986145,-0.1353535950183868,0.1475372314453125,-48.16872406005859,13.13015747070312,2
1596229607.717331,137,0,101939.915486625,-0.9742841073820986,1.053425937183101,1.291921329671215,-0.162755936384201,0.08250699937343597,-0.02979807741940022,-0.03121364116668701,0.01265239715576172,0.0330427885055542,2,0.647746721602213,0.1111278387999862,-0.05572371645196028,0.7516445941429089,0.2392469942569733,-0.9613657593727112,-0.1361495703458786,0.31719970703125,-48.31594848632812,13.10830688476562,2
1596229607.747403,138,0,101939.945581625,-0.9605650371450378,1.045821926876548,1.287064801414468,-0.112909346818924,0.2661752104759216,-0.09472116082906723,-0.06906962394714355,0.0008037090301513672,0.02473950386047363,2,0.6456176822877381,0.1141318294636542,-0.05446982230619779,0.7531167664790659,0.2422425448894501,-0.9600175023078918,-0.1403034627437592,0.2831344604492188,-48.35091400146484,12.82452392578125,2
