loggingTime,loggingSample,identifierForVendor,motionTimestamp_sinceReboot,motionYaw,motionRoll,motionPitch,motionRotationRateX,motionRotationRateY,motionRotationRateZ,motionUserAccelerationX,motionUserAccelerationY,motionUserAccelerationZ,motionAttitudeReferenceFrame,motionQuaternionX,motionQuaternionY,motionQuaternionZ,motionQuaternionW,motionGravityX,motionGravityY,motionGravityZ,motionMagneticFieldX,motionMagneticFieldY,motionMagneticFieldZ,motionMagneticFieldCalibrationAccuracy
1596232556.758883,1,0,104888.96188225,0.6956449883738913,0.4313854823717112,1.124845625312106,-0.03262616693973541,-0.03205075860023499,0.01122742332518101,0.02392959594726562,-0.009901285171508789,0.008674740791320801,2,-0.4279759666972844,-0.3477581598813096,-0.388958731028486,-0.737978209779079,0.1803459078073502,-0.9022009968757629,-0.391801655292511,-1.806266784667969,-50.72281646728516,1.3699951171875,2
1596232556.775688,2,0,104888.99198025,0.6909421559775755,0.4335726597479193,1.127342659669822,0.2010286748409271,-0.1282677501440048,-0.1056413277983665,-0.06223645806312561,0.04537200927734375,-0.02013766765594482,2,-0.4293875056948605,-0.3477730509454012,-0.3876843963373431,-0.7378217089762665,0.180255338549614,-0.903275191783905,-0.3893605470657349,-1.610809326171875,-50.83988189697266,1.392730712890625,2
1596232556.805895,3,0,104889.02207825,0.6754650611064805,0.4446214511385068,1.129741704726338,0.1114342361688614,-0.0495307631790638,-0.1928214430809021,-0.07582026720046997,0.0009570717811584473,0.01704734563827515,2,-0.4309287989654703,-0.3487210626326992,-0.384347679039484,-0.738221365589768,0.1836137175559998,-0.9043019413948059,-0.3853879868984222,-1.451469421386719,-50.99539184570312,1.707275390625,2
1596232556.836121,4,0,104889.05217625,0.662667101056908,0.4565650121131093,1.128707095735398,-0.01157440710812807,0.04419461637735367,-0.1652467846870422,-0.05504521727561951,-0.003443479537963867,-0.01207852363586426,2,-0.4304538393252005,-0.3502941502143456,-0.3821901156705542,-0.7388735116847313,0.1886157393455505,-0.9038597941398621,-0.3840070068836212,-1.313705444335938,-51.01663208007812,1.737396240234375,2
1596232556.866144,5,0,104889.08227425,0.6531678044785578,0.4679056329126478,1.125274756222691,-0.06012926995754242,0.1244072094559669,-0.1607306152582169,0.03591859340667725,0.02179515361785889,-0.03737634420394897,2,-0.4285537034706249,-0.3521884581371347,-0.3810880251723102,-0.7396464146011883,0.1943564862012863,-0.9023860096931458,-0.3846100270748138,-0.9835586547851562,-50.84323120117188,1.76251220703125,2
1596232556.896276,6,0,104889.11237225,0.6467298413807123,0.4798832004607586,1.124509521121701,0.01921707764267921,0.2337108254432678,-0.01938116922974586,0.1031875610351562,0.003104329109191895,0.02894014120101929,2,-0.427096006239447,-0.3551838876398672,-0.3812617607805298,-0.7389672633059426,0.1992677748203278,-0.9020559787750244,-0.3828668296337128,-0.8166275024414062,-50.82044219970703,1.830322265625,2
1596232556.926264,7,0,104889.14247025,0.6479661723557765,0.4856978050710449,1.123391045836047,-0.0379844605922699,0.2742903232574463,-0.05115996673703194,0.02638936042785645,0.00146949291229248,0.0402446985244751,2,-0.4253065233036785,-0.3575157246503428,-0.3829421205763803,-0.738005402469633,0.2019615024328232,-0.9015727043151855,-0.3825937211513519,-0.5838470458984375,-50.93195343017578,2.081207275390625,2
1596232556.956546,8,0,104889.17256825,0.6396571178936845,0.5008747534597446,1.120974977725289,-0.003899354487657547,0.1953080892562866,-0.2107751816511154,0.002465128898620605,0.01983082294464111,-0.05499643087387085,2,-0.4229024994878186,-0.3611874422465597,-0.3830556312915345,-0.7375400101998262,0.2087900191545486,-0.9005247950553894,-0.3813942074775696,-0.5142288208007812,-50.93483734130859,2.00537109375,2
1596232556.986506,9,0,104889.20266625,0.6267104063056449,0.5155802027085126,1.118541023801068,0.05123040452599525,-0.02748668752610683,-0.1533999592065811,-0.01683852076530457,-0.001188874244689941,-0.02919542789459229,2,-0.421439541913005,-0.3637228753787755,-0.3813320795512656,-0.738024522307372,0.2154559642076492,-0.8994638323783875,-0.3801887631416321,-0.2724761962890625,-50.76483917236328,1.86724853515625,2
1596232557.01668,10,0,104889.23276425,0.616304395217474,0.5208203074795994,1.119926167581532,0.1359453350305557,-0.06637445837259293,-0.03619145974516869,-0.002083241939544678,0.03462600708007812,-0.06435549259185791,2,-0.4229049396394188,-0.3635446511565046,-0.3786311193404846,-0.7386643868146189,0.2168250381946564,-0.9000682830810547,-0.3779734075069427,0.03887939453125,-50.76393127441406,1.91650390625,2
1596232557.04671,11,0,104889.26286325,0.6130752848672963,0.5240872479549411,1.122735508805319,0.1070953756570816,-0.04646468535065651,-0.0218094140291214,-0.1099601984024048,-0.005640506744384766,-0.01199960708618164,2,-0.4240280847176599,-0.3642307113535246,-0.3782053709340869,-0.7379002548396261,0.2167924642562866,-0.9012888669967651,-0.3750723302364349,0.073883056640625,-50.86022186279297,2.20196533203125,2
1596232557.077117,12,0,104889.29296125,0.5958725802834121,0.5357034108407643,1.125511022507243,0.3254677951335907,-0.02502573281526566,-0.2989345490932465,-0.1400611102581024,0.0436708927154541,-0.1857991814613342,2,-0.4261182793404655,-0.3650137029783729,-0.3744067824103941,-0.7382464394879127,0.2198569923639297,-0.9024878144264221,-0.3703764081001282,0.090576171875,-50.61578369140625,2.280364990234375,2
1596232557.106791,13,0,104889.32305925,0.5613113662500731,0.5670769198820296,1.130220756391448,0.4366176724433899,-0.001556098228320479,-0.3668226301670074,-0.1073025465011597,0.02339422702789307,-0.1372164487838745,2,-0.4285703339414949,-0.3694228309056918,-0.3685319948615298,-0.7375896550789622,0.2290811538696289,-0.9045063257217407,-0.3597084879875183,0.6617050170898438,-50.79092407226562,2.95379638671875,2
1596232557.136977,14,0,104889.35315725,0.51864399152796,0.609045757007749,1.135875317284855,0.58968585729599,0.220310166478157,-0.4099479615688324,0.03719788789749146,0.0595930814743042,-0.09461629390716553,2,-0.4311727484532107,-0.3758992186471075,-0.3621123344637144,-0.7359786094856412,0.2410416305065155,-0.9069033265113831,-0.3455796837806702,1.193504333496094,-50.58541107177734,3.393096923828125,2
1596232557.16711,15,0,104889.38325525,0.474786042746116,0.6545585094881968,1.14553718710524,0.5956835746765137,0.03153721988201141,-0.1657130867242813,0.06885787844657898,0.09198451042175293,-0.1048682928085327,2,-0.4352669423207676,-0.3832735772476884,-0.3564837933766702,-0.7325047623070041,0.2511682212352753,-0.9109318256378174,-0.3272881209850311,1.767509460449219,-50.51008605957031,4.6151123046875,2
1596232557.1974,16,0,104889.41335375,0.4296236130439515,0.695267701915633,1.158153070790991,0.8301934003829956,0.05204238370060921,-0.3440171778202057,-0.07022342085838318,0.04796487092971802,-0.1853539943695068,2,-0.4419100483465944,-0.3882560872635048,-0.3498883127689564,-0.7290753644278325,0.2568975687026978,-0.9160639643669128,-0.3079454302787781,1.825363159179688,-50.50281524658203,5.144866943359375,2
1596232557.227326,17,0,104889.44345175,0.3657215917414933,0.7603130271661428,1.168542392052371,0.8267521262168884,0.3903940916061401,-0.4012799263000488,-0.1232998967170715,0.06865072250366211,-0.04441922903060913,2,-0.4473892096256783,-0.3974933929917136,-0.3421138394630104,-0.724430692557439,0.269796758890152,-0.9201809167861938,-0.2836838066577911,2.72467041015625,-50.22925567626953,6.7332763671875,2
1596232557.257457,18,0,104889.47354975,0.2971753629946747,0.8415118497230978,1.178779773629404,0.81327223777771,0.7760787010192871,-0.3050861954689026,0.08500626683235168,0.06396925449371338,-0.04510384798049927,2,-0.451516471447029,-0.4109078176221853,-0.3368677443726461,-0.7168036730210108,0.2848778069019318,-0.9241405129432678,-0.2545752823352814,2.751556396484375,-50.20368957519531,7.545013427734375,2
1596232557.287521,19,0,104889.50364775,0.2518242049054795,0.9091681592749967,1.189860776532329,0.7001413702964783,0.8957421779632568,0.1982116997241974,0.2194605469703674,-0.03122091293334961,0.04394620656967163,2,-0.4538808381669702,-0.4240026134341425,-0.3375809950538705,-0.7072856047102885,0.293338805437088,-0.9283171892166138,-0.2284279316663742,2.972190856933594,-49.73462677001953,9.173187255859375,2
1596232557.317763,20,0,104889.53374575,0.2175973379905156,0.9654765318265554,1.21085616929397,0.6812657117843628,0.8265972137451172,0.2738843858242035,0.01610857248306274,0.08206367492675781,0.1595827341079712,2,-0.4596530334845422,-0.4341758043800335,-0.3417058247057352,-0.6953039072983775,0.2896360158920288,-0.9359179139137268,-0.2004209160804749,2.8690185546875,-49.58511352539062,10.09210205078125,2
1596232557.347696,21,0,104889.56384375,0.1746811115638972,1.030599860811445,1.226154722734173,0.6554536819458008,0.6107292175292969,0.1460056602954865,-0.03214922547340393,-0.06013476848602295,0.08997207880020142,2,-0.4636040142402675,-0.4451854008487092,-0.3445467050037965,-0.6842286251160742,0.289750725030899,-0.941196620464325,-0.1737625598907471,1.873725891113281,-49.38668060302734,11.35092163085938,2
1596232557.377817,22,0,104889.59394175,0.1361044481251219,1.085034819262574,1.237088662628191,0.4599989652633667,0.6887021660804749,-0.03973838686943054,-0.2524220645427704,-0.03999638557434082,0.3107061386108398,2,-0.4668375520064721,-0.4534307987284348,-0.3461258036755532,-0.6757663335935943,0.2896575033664703,-0.9448344111442566,-0.1529264152050018,1.48504638671875,-49.10047149658203,12.09649658203125,2
1596232557.407893,23,0,104889.62403975,0.09872214058137486,1.1465134187562,1.236372914678677,0.2298334091901779,1.197786450386047,-0.3170397877693176,-0.3036017417907715,-0.004132091999053955,0.1640591621398926,2,-0.4645079796017119,-0.4654811628385438,-0.3477344098705497,-0.6683115353121384,0.2991220355033875,-0.9445996880531311,-0.1351192444562912,1.363044738769531,-48.90437316894531,13.05856323242188,2
1596232557.438139,24,0,104889.65413775,0.06914997858872354,1.214036646840039,1.226649084650896,0.2198148220777512,1.259199857711792,-0.5458337068557739,-0.1363624036312103,-0.03654348850250244,-0.03577214479446411,2,-0.4563546479962481,-0.4825192071164279,-0.3513498477170724,-0.6599005981801183,0.3161491453647614,-0.941363513469696,-0.1178312972187996,1.309669494628906,-49.12046051025391,13.35986328125,2
1596232557.468074,25,0,104889.68423575,0.03053642108095841,1.282105995375064,1.21250651146274,0.2762072086334229,0.6673048138618469,-0.5257117748260498,0.1689778566360474,0.1024883985519409,-0.06446194648742676,2,-0.4491128662150863,-0.4983772507971541,-0.3507747403533256,-0.6533564849820045,0.3361611068248749,-0.9364979267120361,-0.09983550012111664,1.780532836914062,-48.76528930664062,13.89425659179688,2
1596232557.498282,26,0,104889.71433475,-0.007393411248343964,1.327246709702764,1.204945324692767,0.4482414126396179,0.1379237174987793,-0.1812165081501007,0.3257488012313843,-0.02005511522293091,-0.3114215135574341,2,-0.4482852752009072,-0.5058710302693188,-0.3466600049060448,-0.6503550115735508,0.3471863567829132,-0.9338196516036987,-0.08626962453126907,2.289817810058594,-48.30721282958984,14.50131225585938,2
1596232557.528509,27,0,104889.74443275,-0.03928404481415571,1.359897907083364,1.205656058335277,0.3114643096923828,0.08144167810678482,-0.0356249026954174,0.07065635919570923,0.02269852161407471,0.1563872098922729,2,-0.4509693812498161,-0.5091672889831605,-0.3438376605305759,-0.6474185705290504,0.3491682112216949,-0.9340736865997314,-0.07475057989358902,2.335052490234375,-48.49755859375,14.89340209960938,2
1596232557.558481,28,0,104889.77453075,-0.07351270859776263,1.391709936614884,1.207049483717092,0.5061506032943726,-0.1621007919311523,0.03132828697562218,0.1507629752159119,0.06681180000305176,-0.1252619028091431,2,-0.4546977739838626,-0.5114317738960782,-0.3403547445687275,-0.6448611727041921,0.3500879108905792,-0.9345703125,-0.06337495148181915,2.578254699707031,-48.22283935546875,15.53060913085938,2
1596232557.588496,29,0,104889.80462875,-0.1015460893341487,1.411394676598865,1.212163822098355,0.2233980447053909,-0.2931309044361115,0.1290332973003387,-0.02919039130210876,-0.01935243606567383,0.1381607055664062,2,-0.4600897541792202,-0.5103540472449679,-0.337230765979278,-0.6435304240951012,0.3465438783168793,-0.9363777041435242,-0.05571232736110687,2.625686645507812,-48.20697021484375,16.04580688476562,2
1596232557.621295,30,0,104889.83472675,-0.1147306608075514,1.418397561350189,1.213009046861862,0.04164261370897293,0.00967215932905674,-0.2011613100767136,-0.2980402708053589,-0.007577300071716309,0.2565629482269287,2,-0.4625295242518153,-0.5093961662229326,-0.3348381804855332,-0.6437896545589123,0.3461428880691528,-0.9366739988327026,-0.05316397175192833,2.285842895507812,-47.93621063232422,16.20040893554688,2
1596232557.648644,31,0,104889.86482475,-0.1201728031610884,1.43031588423435,1.202340703501525,-0.01971276104450226,0.27141073346138,-0.4125966727733612,-0.1853366494178772,-0.006018996238708496,0.2089455723762512,2,-0.4587309431501717,-0.5141500825447278,-0.3328322993376082,-0.6437686452711335,0.3566264510154724,-0.932884693145752,-0.05043122917413712,2.620269775390625,-47.91669464111328,16.36904907226562,2
1596232557.681081,32,0,104889.89492275,-0.1200293794318938,1.433370146525987,1.190747766318223,0.01002588868141174,-0.1429914236068726,-0.3685919344425201,-0.03845012187957764,-0.04924249649047852,-0.1649430394172668,2,-0.4547089301852081,-0.5175227165975566,-0.3302901103267709,-0.6452274335634076,0.3674679696559906,-0.9286466240882874,-0.05082005262374878,3.211555480957031,-47.75006866455078,16.42791748046875,2
1596232557.708864,33,0,104889.92502075,-0.1242523230946792,1.436780363246493,1.179173541748957,-0.05440954491496086,0.1456787884235382,-0.3878505825996399,0.04427158832550049,0.05806446075439453,0.0632660984992981,2,-0.4517638709328431,-0.5200093525557203,-0.3263991814208836,-0.647273566822686,0.3782658874988556,-0.9242908954620361,-0.05099935457110405,3.619842529296875,-47.86796569824219,16.44680786132812,2
1596232557.741135,34,0,104889.95511875,-0.1214935516384429,1.436526601225149,1.167848978047138,-0.1525504738092422,-0.0159105472266674,-0.3768977224826813,0.07813054323196411,-0.04476833343505859,0.0644150972366333,2,-0.4476691425522553,-0.5228247384841997,-0.3239938683780336,-0.64905660139348,0.3886015713214874,-0.9199092388153076,-0.05249326303601265,4.427650451660156,-47.47109222412109,16.27835083007812,2
1596232557.76907,35,0,104889.98521675,-0.1051169610113908,1.419988320637894,1.157436278846595,-0.3783147931098938,-0.09363584220409393,-0.186676949262619,0.09737429022789001,-0.03882837295532227,0.1547493934631348,2,-0.4428836502615059,-0.5231441808387222,-0.3226738417835294,-0.65272946535549,0.3971292972564697,-0.9157763123512268,-0.06034847721457481,4.738105773925781,-47.55713653564453,16.08828735351562,2
1596232557.801017,36,0,104890.01531475,-0.08056969530672904,1.397257728637358,1.152210429873878,-0.3461056053638458,0.1134204864501953,-0.1353039145469666,-0.04012244939804077,0.04791229963302612,0.1001351475715637,2,-0.4385212562044517,-0.5221176728147068,-0.3242283588981194,-0.6557195596935944,0.4003634750843048,-0.9136646389961243,-0.07018448412418365,5.017616271972656,-47.75949859619141,15.6787109375,2
1596232557.829283,37,0,104890.04541275,-0.04835511916321408,1.371867132246206,1.141750587758328,-0.7092433571815491,0.1783092319965363,-0.3726199269294739,-0.01594087481498718,-0.06295675039291382,0.1882754564285278,2,-0.4309146571076812,-0.5226924075629069,-0.3264263290500806,-0.6592047894781261,0.4077988862991333,-0.9093631505966187,-0.08221041411161423,5.232254028320312,-47.843994140625,14.96823120117188,2
1596232557.861529,38,0,104890.07551075,0.0050132214884441,1.329060959318327,1.127269950822408,-0.9564278721809387,0.1111479178071022,-0.159394159913063,0.06906077265739441,-0.03597521781921387,0.1039372682571411,2,-0.4192668094398376,-0.5223518108802802,-0.3311410896829325,-0.6646122587677952,0.4166499078273773,-0.9032440185546875,-0.1027278527617455,5.665313720703125,-48.17275238037109,13.89642333984375,2
1596232557.889463,39,0,104890.10560875,0.08077973437038825,1.258291245912494,1.11654313644025,-1.4066002368927,-0.08012285828590393,-0.04350871220231056,-0.1216147243976593,-0.2260299921035767,0.07176768779754639,2,-0.4077927836335142,-0.5159973823981698,-0.3391530417180768,-0.6726269208908249,0.4175391495227814,-0.8985889554023743,-0.1349034905433655,5.7122802734375,-48.45252990722656,13.16473388671875,2
1596232557.921953,40,0,104890.13570675,0.1814401608523635,1.181844902778733,1.090699946982152,-2.041193962097168,0.9676910042762756,-0.5919991731643677,-0.2635249495506287,-0.1225846409797668,0.2289794087409973,2,-0.3858336062279492,-0.5133797131582973,-0.3521236024898187,-0.6808688718444873,0.4273662865161896,-0.8869504332542419,-0.1751473993062973,5.957504272460938,-48.79186248779297,10.58660888671875,2
1596232557.949622,41,0,104890.16580475,0.3210572781185898,1.127631558223866,1.031034763005182,-3.826801538467407,3.82222843170166,-1.070080757141113,-0.3292602300643921,-0.4521529674530029,0.05733746290206909,2,-0.3370050607853015,-0.5255858664018224,-0.3776138196989239,-0.6838091264288697,0.464285284280777,-0.8578312397003174,-0.2203741669654846,6.684028625488281,-49.57563781738281,6.363037109375,2
1596232557.981759,42,0,104890.19590275,0.5158727917576638,1.103295129141741,0.9449375757788809,-4.831367015838623,5.483130931854248,-0.992723822593689,-0.800261914730072,-0.7210857272148132,0.04801911115646362,2,-0.2557154993645995,-0.5501032770358038,-0.424063316505796,-0.6724330913831557,0.5229361653327942,-0.8104603886604309,-0.2639919221401215,7.152374267578125,-49.59021759033203,3.134246826171875,2
1596232558.009824,43,0,104890.22600075,0.7109372536324865,1.155470562747295,0.8406344851979695,-5.808920383453369,7.740855693817139,-1.668176651000977,-0.6810786724090576,-0.1321541666984558,0.5598909258842468,2,-0.1469293758769263,-0.5863876785079132,-0.4750849152880746,-0.6394180301874772,0.6102858781814575,-0.7450664639472961,-0.2691225111484528,9.883247375488281,-48.99272155761719,-3.795562744140625,2
1596232558.041205,44,0,104890.25609975,0.9479027946254485,1.246545222946151,0.7313601859585227,-6.820545196533203,9.971114158630371,-0.9063898921012878,-0.4201655387878418,0.009623289108276367,0.5262750387191772,2,-0.009556514145549672,-0.6175332914461469,-0.5317994597728498,-0.5794399414878801,0.7054826021194458,-0.6678826212882996,-0.2371226102113724,12.04739379882812,-47.70130920410156,-7.36224365234375,2
1596232558.069999,45,0,104890.28619775,1.196676170804191,1.411677307718787,0.659132818701353,-6.679586887359619,10.76868629455566,-0.8618705868721008,0.002763152122497559,0.4082155823707581,0.773546576499939,2,0.142197789356046,-0.6458724344796468,-0.5790768018633471,-0.4767582292145948,0.7805368900299072,-0.612431526184082,-0.1252571791410446,18.236083984375,-44.43088531494141,-12.4390869140625,2
1596232558.100944,46,0,104890.31629575,1.425372730137441,1.576327225922168,0.6171651937058135,-5.674519062042236,9.284310340881348,-0.890326976776123,0.1587895154953003,0.09084111452102661,0.3615323305130005,2,0.2796973621873428,-0.6511717584787268,-0.6022292728468209,-0.367511059784484,0.8155094981193542,-0.5787256360054016,0.004510547034442425,21.77275085449219,-42.15150451660156,-13.458251953125,2
1596232558.130199,47,0,104890.34639375,1.624629823490683,1.713515792043518,0.6085564571512269,-5.109086990356445,7.016576290130615,-0.3361249566078186,0.1926717162132263,0.0221598744392395,0.2458653450012207,2,0.3884102876774349,-0.6383476199151061,-0.6092710987493015,-0.265402142371821,0.8121320009231567,-0.5716836452484131,0.1167004704475403,27.84281921386719,-38.19165802001953,-12.37265014648438,2
1596232558.160854,48,0,104890.37649175,1.771844261791201,1.798803689380532,0.6390472911412159,-2.864612817764282,4.473795413970947,0.8095225691795349,0.2588063478469849,0.4753455519676208,0.2032055854797363,2,0.4520972246032497,-0.6215496426427726,-0.6129866352874409,-0.1831157464418136,0.7818901538848877,-0.5964310169219971,0.1814317107200623,29.68447875976562,-36.89506530761719,-11.89663696289062,2
1596232558.190475,49,0,104890.406589375,1.812212374801824,1.853753274635248,0.6743675820953404,0.2294223755598068,0.30026575922966,0.6455557942390442,0.6210507750511169,0.6454102993011475,0.2284727096557617,2,0.4715369821688579,-0.6218466299201548,-0.6091181821905902,-0.1411901122604866,0.7500407099723816,-0.6244034767150879,0.2180807143449783,30.39761352539062,-36.51432037353516,-10.50149536132812,2
1596232558.221683,50,0,104890.436687375,1.758505378021635,1.829556655352288,0.6670946032579378,2.17792010307312,-3.305447340011597,-0.2662862837314606,0.6661772727966309,0.6520217657089233,0.4912073612213135,2,0.4493827039924509,-0.6313228988199475,-0.6093907950153199,-0.1677174808390417,0.7594671249389648,-0.6187060475349426,0.2010268270969391,30.26252746582031,-37.00376129150391,-10.57818603515625,2
1596232558.250686,51,0,104890.466785375,1.691507811336828,1.764655709469954,0.6455000505460381,1.161107897758484,-3.475268363952637,-0.09233766049146652,0.3931549191474915,0.3043319582939148,0.6406744718551636,2,0.4145003286673488,-0.6365003877214889,-0.613420391443164,-0.2162684417511981,0.7838358283042908,-0.6015979647636414,0.1538865268230438,28.88351440429688,-37.51996612548828,-11.479248046875,2
1596232558.281136,52,0,104890.496883375,1.672603040530614,1.69740748284984,0.6588430461022861,-0.1332657486200333,-1.394554018974304,1.22873854637146,0.01307952404022217,-0.3145965933799744,0.2073739767074585,2,0.3836925599722626,-0.6345881811987676,-0.6268650976240094,-0.23899330636632,0.7843716144561768,-0.6122024655342102,0.09984427690505981,27.91644287109375,-37.79831695556641,-12.60855102539062,2
1596232558.310816,53,0,104890.526981375,1.680514165272439,1.701841410552154,0.7085779675647732,-0.5061553120613098,2.364574670791626,1.606371164321899,-0.5781819224357605,-0.08749103546142578,0.1935762166976929,2,0.3726155788883334,-0.6409101566013935,-0.6346083985266846,-0.2183205000547348,0.7527775764465332,-0.6507546901702881,0.09921639412641525,25.63889312744141,-39.11444091796875,-14.08047485351562,2
1596232558.3565,54,0,104890.557079375,1.690227163313622,1.786198099000965,0.7354063551136795,-0.1067177057266235,2.565275192260742,-0.1289927363395691,-0.5141423344612122,0.2445753216743469,0.03466141223907471,2,0.3942098508042211,-0.6510367658008709,-0.62351891904708,-0.1788120384003115,0.7244210243225098,-0.6708885431289673,0.1585005521774292,25.27105712890625,-39.83127593994141,-13.23068237304688,2
1596232558.37252,55,0,104890.587177375,1.698538681500614,1.818096949310356,0.7095283409052576,-0.07261964678764343,0.3894068598747253,-1.144682765007019,0.2433454990386963,-0.06535148620605469,-0.2789499759674072,2,0.4144391536246256,-0.6489195514755317,-0.6136494094028668,-0.1748654627628207,0.7355878949165344,-0.6514760255813599,0.1857127994298935,26.31116485595703,-39.59716033935547,-11.17694091796875,2
1596232558.416154,56,0,104890.617275375,1.706908621821056,1.810647956215881,0.7027683351687148,-0.08402164280414581,-0.474650502204895,0.7968710660934448,0.3981332778930664,-0.03669381141662598,-0.2459864616394043,2,0.4168401736997591,-0.6456620304313572,-0.6148290020448223,-0.1770593832464634,0.7412118911743164,-0.6463325619697571,0.1812703758478165,27.03933715820312,-39.04562377929688,-10.86245727539062,2
1596232558.431168,57,0,104890.647373375,1.690739274122635,1.814961140151885,0.7408531037672538,0.04099918156862259,0.2798617482185364,1.409521222114563,-0.02027195692062378,-0.1122235655784607,0.0507044792175293,2,0.4016863914636312,-0.654094322271898,-0.6187039238489154,-0.1673740931717429,0.7160067558288574,-0.6749176383018494,0.1783826798200607,26.30562591552734,-39.68516540527344,-11.18289184570312,2
1596232558.475252,58,0,104890.677471375,1.690700525984908,1.830719646903794,0.7688613105276642,-0.3117192387580872,0.7476898431777954,0.3138303756713867,-0.362733006477356,-0.1909891963005066,0.1413154602050781,2,0.3982104376248266,-0.6586228457611008,-0.6200104911527682,-0.1524179510717174,0.6945611834526062,-0.6953173279762268,0.184711217880249,24.60762023925781,-40.66722869873047,-10.89224243164062,2
1596232558.49141,59,0,104890.707569375,1.697518229985743,1.852752890934349,0.766146170334948,0.01680990122258663,0.8679431676864624,-0.4323635101318359,-0.3311576843261719,0.0688546895980835,0.1520261764526367,2,0.4080696339651678,-0.6585785877053085,-0.6156413075717153,-0.1440109547722228,0.6921340823173523,-0.6933633685112,0.2004931718111038,24.90101623535156,-40.71514892578125,-10.681640625,2
1596232558.536672,60,0,104890.737667375,1.701743758901385,1.866152778053435,0.7533034337262557,0.02742591872811317,0.1696125566959381,-0.3067570626735687,0.1634136438369751,0.2401052117347717,0.09965181350708008,2,0.4173569928270294,-0.6572481645361059,-0.611093660879229,-0.1428372519545144,0.6978474855422974,-0.6840521097183228,0.2123240232467651,25.96762847900391,-40.30091094970703,-9.9073486328125,2
1596232558.551599,61,0,104890.767765375,1.692107642076012,1.863474798797945,0.7524022764078263,0.4265702664852142,-0.8380880951881409,0.3635201752185822,0.2796272039413452,-0.09282183647155762,-0.268993616104126,2,0.4136331122285831,-0.6589565234588867,-0.6108033333852427,-0.1469794948455395,0.6990031599998474,-0.6833944916725159,0.2106321007013321,26.13582611083984,-40.13934326171875,-9.811614990234375,2
1596232558.595452,62,0,104890.797863375,1.675671941425902,1.844908400926512,0.7625909093902608,0.06571932882070541,-0.8534055948257446,0.3805319368839264,-0.03488659858703613,-0.1431901454925537,-0.1502044200897217,2,0.3994993890038492,-0.6620136319458141,-0.6150169495069607,-0.1545710671462316,0.6960541009902954,-0.6907970905303955,0.1957236230373383,25.05451965332031,-40.76312255859375,-10.349365234375,2
1596232558.611968,63,0,104890.827962375,1.673113429346864,1.831841393766203,0.76772106685716,0.05185891315340996,-0.2089024037122726,-0.0279124416410923,-0.2491788864135742,0.03149199485778809,-0.05755901336669922,2,0.3930919169590432,-0.6620620038666214,-0.6182417615834969,-0.1578910578120706,0.6951190233230591,-0.6944973468780518,0.1856947094202042,24.57004547119141,-40.87001037597656,-10.52059936523438,2
1596232558.657571,64,0,104890.858060375,1.673044232204676,1.825786954475132,0.7629292600391048,-0.03850759565830231,-0.252747654914856,-0.2042614072561264,-0.01355904340744019,0.06895691156387329,-0.04507255554199219,2,0.3926317236197732,-0.6610600618471351,-0.6186510512658516,-0.1615881718412456,0.6994430422782898,-0.6910417079925537,0.1823201477527618,24.45807647705078,-40.9100341796875,-10.84072875976562,2
1596232558.673149,65,0,104890.888158375,1.675040321083075,1.814760623347777,0.7620654272809378,-0.003976567648351192,-0.3999350666999817,0.184042900800705,0.1320510506629944,0.004511415958404541,0.09516716003417969,2,0.3901330845507437,-0.6596716490845882,-0.6208329599600424,-0.1649113334011457,0.7019895911216736,-0.6904170513153076,0.1747410148382187,24.72338104248047,-40.75580596923828,-10.96661376953125,2
1596232558.716243,66,0,104890.918256375,1.671262497648993,1.798040659304374,0.768889627486563,0.1189393028616905,-0.8714518547058105,0.1276294589042664,-0.1134700775146484,0.02064132690429688,0.06119441986083984,2,0.3816241766348792,-0.6597880797480842,-0.6248231354010996,-0.1692293883754077,0.7002062797546387,-0.6953376531600952,0.1619146466255188,24.24199676513672,-40.93870544433594,-11.49786376953125,2
1596232558.732075,67,0,104890.948354375,1.660712690256759,1.773798678532287,0.7617590344586627,0.4256271123886108,-1.156376600265503,-0.4189869463443756,0.09695160388946533,0.1392660140991211,-0.05071115493774414,2,0.3727198945700091,-0.6588057404622729,-0.6273506369716126,-0.1829913209416316,0.708763599395752,-0.6901953816413879,0.1458902508020401,24.00948333740234,-41.21284484863281,-11.6728515625,2
1596232558.77626,68,0,104890.978452375,1.64763887232591,1.745937568981923,0.7504830660946771,0.3223679065704346,-1.384040594100952,-0.03787639364600182,0.1930627822875977,0.127314031124115,0.03886711597442627,2,0.3631049816129285,-0.6571707825892042,-0.6294655537538046,-0.2001357925994839,0.7201709747314453,-0.6819921135902405,0.1274373233318329,24.09886169433594,-41.00766754150391,-12.334716796875,2
1596232558.79244,69,0,104891.008550375,1.629762521215957,1.716586760393859,0.7557253298075671,0.4143664538860321,-1.16202175617218,0.3804628551006317,-0.05466651916503906,-0.1638811230659485,-0.08143174648284912,2,0.3463437418062381,-0.6579586041511203,-0.6336328693029515,-0.2136485421777582,0.7200533747673035,-0.6858167052268982,0.1057270243763924,23.67411804199219,-40.89019012451172,-12.7294921875,2
1596232558.838863,70,0,104891.038648375,1.620183950201077,1.697731661899583,0.7615019426358798,0.03949371352791786,-0.6475476026535034,-0.002076807431876659,-0.2754301428794861,-0.1724615693092346,-0.04383254051208496,2,0.3354057804043803,-0.6582686458397753,-0.6366860167500473,-0.22094364950885,0.7179768681526184,-0.6900093555450439,0.09162929654121399,22.82814025878906,-41.54324340820312,-13.42086791992188,2
1596232558.852673,71,0,104891.068746375,1.61307416911775,1.686197938193313,0.7551378273434096,0.3547109961509705,-0.272205263376236,-0.3122734725475311,-0.2432805895805359,-0.1108181476593018,-0.08075308799743652,2,0.331386413621181,-0.6573478903724083,-0.6368448292371162,-0.2291406132910769,0.7233336567878723,-0.6853890419006348,0.08384640514850616,22.40525817871094,-41.52822875976562,-13.69973754882812,2
1596232558.896024,72,0,104891.098844375,1.605959898529594,1.692307381168363,0.745915371050492,-0.007923534139990807,0.2184990793466568,-0.1842773109674454,0.004292190074920654,-0.07070767879486084,0.1136847734451294,2,0.3338730403233527,-0.6580592665203888,-0.6335924356080724,-0.2324810985613117,0.7290515303611755,-0.6786444187164307,0.08902641385793686,22.79127502441406,-41.42059326171875,-13.43093872070312,2
1596232558.912962,73,0,104891.128942375,1.604050036179461,1.698816330796039,0.7450313970957402,0.2323255240917206,0.1110883057117462,0.1164443418383598,0.1711015105247498,-0.02230948209762573,-0.03874123096466064,2,0.3355799071685573,-0.6590214891758133,-0.6321437487370791,-0.2312381287879573,0.7290512919425964,-0.6779949069023132,0.093846395611763,23.02360534667969,-41.37940979003906,-13.287841796875,2
1596232558.956246,74,0,104891.159040375,1.589377863308831,1.704022426876248,0.7493077308173164,0.3959494233131409,-0.652003288269043,0.2137576043605804,0.2173296809196472,0.1133797168731689,-0.0806194543838501,2,0.331038917263019,-0.6626013286644379,-0.6302500900406202,-0.2327173860735815,0.7256723046302795,-0.6811320781707764,0.09725457429885864,22.92557525634766,-41.57475280761719,-12.9908447265625,2
1596232558.97288,75,0,104891.189138375,1.569095513482574,1.692716975611717,0.7527790136309493,0.521107017993927,-0.8913418650627136,0.1836186051368713,0.09389078617095947,-0.05738675594329834,0.1143710613250732,2,0.3196541305770576,-0.6649807670503423,-0.6302385402634008,-0.2417042397525962,0.7243740558624268,-0.6836695075035095,0.08875636756420135,22.28960418701172,-42.02484893798828,-12.92514038085938,2
1596232559.0197,76,0,104891.219236375,1.549365529866125,1.682540647484259,0.7591591290245819,0.4144445359706879,-0.5385039448738098,0.2871590256690979,-0.2252384424209595,-0.1624956727027893,0.2651234865188599,2,0.307853947806663,-0.6675868074580644,-0.6304390790225329,-0.2491992016877165,0.7208905220031738,-0.6883116960525513,0.08089239895343781,21.72530364990234,-42.13937377929688,-12.83624267578125,2
1596232559.033065,77,0,104891.249334375,1.523575302809014,1.684264679498415,0.759438745424258,0.8911516666412354,-0.894336462020874,-0.1882444471120834,-0.03428936004638672,0.03268706798553467,0.2298121452331543,2,0.2996712476209946,-0.6717542745427674,-0.6269614290310934,-0.2566371014477586,0.720558762550354,-0.6885145306587219,0.08211332559585571,21.22849273681641,-42.56039428710938,-12.74032592773438,2
1596232559.076934,78,0,104891.279432375,1.480977848441782,1.662286682069767,0.7465966228161302,1.183540105819702,-2.449912309646606,-0.2559462487697601,0.4506856203079224,0.1411795616149902,0.1823049783706665,2,0.2825991373732483,-0.6735488607954484,-0.6222687922626253,-0.2815158422339154,0.7309346199035645,-0.6791446208953857,0.0670606791973114,20.98639678955078,-42.97845458984375,-12.40966796875,2
1596232559.093419,79,0,104891.309530375,1.42709475376969,1.605574241183384,0.7475440833892912,1.468243956565857,-3.778104066848755,0.4608343839645386,0.4032190442085266,0.1873251795768738,0.2524282932281494,2,0.2465116793903022,-0.6722959125933926,-0.6218686609548347,-0.3170636355315888,0.7329169511795044,-0.6798397302627563,0.0254996046423912,19.99080657958984,-43.28678131103516,-12.56051635742188,2
1596232559.141542,80,0,104891.339628375,1.359093849421904,1.524763730679583,0.7621119034190136,1.813034772872925,-4.515020847320557,0.3109241724014282,0.003132104873657227,0.1729868054389954,0.1956902742385864,2,0.1936885383437526,-0.6677133461311746,-0.6216790291957344,-0.3607752929573632,0.7226131558418274,-0.6904506683349609,-0.03328727558255196,18.46761322021484,-43.85256958007812,-12.83050537109375,2
1596232559.158009,81,0,104891.369726375,1.281030898389827,1.435318834891991,0.7678778703580893,1.890558481216431,-4.888908386230469,-0.1910925358533859,-0.07042062282562256,0.2339685559272766,0.03260195255279541,2,0.138136758754678,-0.6575232668251776,-0.6149341776793142,-0.412840459878178,0.7127944231033325,-0.6946101784706116,-0.09716277569532394,15.71434783935547,-44.99322509765625,-13.220458984375,2
1596232559.196262,82,0,104891.3998242917,1.203275723677617,1.357217854552981,0.7736874350359811,1.837841749191284,-4.057610034942627,0.05246023088693619,0.5336940288543701,0.324804425239563,0.1506738066673279,2,0.08691196149505562,-0.6454729098219472,-0.6032700322607767,-0.4603001476140358,0.6990852952003479,-0.6987777352333069,-0.1516220718622208,14.56355285644531,-45.30441284179688,-13.0936279296875,2
1596232559.213838,83,0,104891.4299222917,1.122224817306923,1.277165279481493,0.7993037620635941,2.362508535385132,-5.332291126251221,0.5671269297599792,0.2828776240348816,0.229523241519928,0.2852848172187805,2,0.02766765934038767,-0.6311405834911983,-0.5899599908166826,-0.5028351316200256,0.6673649549484253,-0.7168708443641663,-0.2017921358346939,12.14989471435547,-46.61325836181641,-12.13751220703125,2
1596232559.258157,84,0,104891.4600202917,1.023762112943159,1.158959506936184,0.8380358417082768,2.663928270339966,-6.936978816986084,0.1992643922567368,-0.02940666675567627,0.3121467232704163,0.3431204557418823,2,-0.0517907884459716,-0.6028555920196694,-0.5686344611294365,-0.5572588688313187,0.6129931807518005,-0.7433306574821472,-0.2677657008171082,10.27350616455078,-47.12567138671875,-11.38040161132812,2
1596232559.273991,85,0,104891.4901182917,0.9114164472486065,1.045990626373194,0.8825328207142298,3.010436773300171,-6.081591606140137,0.4504953026771545,0.09236311912536621,0.2775086164474487,0.7071728110313416,2,-0.1334739449616527,-0.5683781083081451,-0.5362978760298985,-0.6095206449767556,0.5497127771377563,-0.7723501920700073,-0.3182620704174042,6.62261962890625,-48.45460510253906,-9.40936279296875,2
1596232559.318837,86,0,104891.5202162917,0.8123706485059172,0.9474850820731141,0.9520347053272586,2.665321350097656,-6.094152450561523,1.142045378684998,-0.2695106267929077,-0.2546839714050293,0.6773470640182495,2,-0.2143800510173937,-0.5336221748088174,-0.5045552461034588,-0.6439816510197979,0.4709526300430298,-0.8145973682403564,-0.3385771512985229,5.187217712402344,-49.41226959228516,-7.673797607421875,2
1596232559.334803,87,0,104891.5503152917,0.7535439923706568,0.8156381771695543,1.014957628917458,1.865093231201172,-4.920472145080566,0.558674693107605,-0.3533693552017212,0.04817581176757812,0.2424895167350769,2,-0.2872969766998897,-0.4864481183038375,-0.4744038707152476,-0.6751070950748217,0.3842195570468903,-0.8494582176208496,-0.3616573512554169,1.807929992675781,-50.26265716552734,-3.915771484375,2
1596232559.379166,88,0,104891.5804132917,0.687962266690444,0.7677007042782318,1.061552330966711,1.780185103416443,-2.902343511581421,0.3791573643684387,-0.06790453195571899,0.1030979156494141,0.1985520124435425,2,-0.3329534250660921,-0.4623369547885682,-0.4481388461913982,-0.6888816704744574,0.3385721743106842,-0.8731133341789246,-0.3507731258869171,0.2211990356445312,-50.67593383789062,-0.79754638671875,2
1596232559.394481,89,0,104891.6105112917,0.6526902885311662,0.698476929785859,1.115910085607373,1.806128621101379,-3.753828287124634,1.074297666549683,-0.2073532938957214,-0.06917530298233032,0.1639358401298523,2,-0.3781728277987918,-0.4344529910951999,-0.4271532449204756,-0.6969763114950767,0.2825313806533813,-0.8983110189437866,-0.336471825838089,-0.2101058959960938,-50.660400390625,0.623443603515625,2
1596232559.440056,90,0,104891.6406092917,0.6180490612033989,0.6226954156513795,1.175027189472922,1.717108845710754,-3.367755889892578,0.5360588431358337,-0.319787472486496,-0.04318666458129883,0.2482008934020996,2,-0.4251042362321431,-0.40336909539754,-0.4027231878821668,-0.7031312488887954,0.2248441725969315,-0.9227003455162048,-0.3131595253944397,-1.640388488769531,-50.48736572265625,3.997711181640625,2
1596232559.457098,91,0,104891.6707072917,0.5715825192496895,0.5665698813853104,1.221066113740755,1.462373614311218,-3.180244207382202,0.2949654459953308,-0.5203664898872375,-0.01260232925415039,0.05264538526535034,2,-0.463563535272187,-0.3749084675682741,-0.3755251168310602,-0.7096007836951673,0.1839111894369125,-0.9394651651382446,-0.2891049683094025,-1.778572082519531,-50.40985870361328,5.649322509765625,2
1596232559.49572,92,0,104891.7008052917,0.5309339364159802,0.5277001760169177,1.257825798181723,1.049655914306641,-1.923976182937622,0.2212916016578674,-0.4609425961971283,-0.0975348949432373,0.01998269557952881,2,-0.4926824857047218,-0.3525084667292346,-0.3528648291595436,-0.7130835017546069,0.1550353020429611,-0.951423168182373,-0.2660034894943237,-1.647712707519531,-50.10752868652344,8.256927490234375,2
1596232559.514837,93,0,104891.7309032917,0.5045195513508559,0.5021805779095507,1.281113857683859,0.6637439131736755,-1.006280183792114,0.03362538665533066,-0.6535688638687134,-0.2820532321929932,-0.4184247851371765,2,-0.5108591062382969,-0.3373911445184627,-0.3376298611900921,-0.7149798901164164,0.1374931931495667,-0.9583346247673035,-0.2503803670406342,-1.411781311035156,-49.86576843261719,8.89202880859375,2
1596232559.557593,94,0,104891.7610012917,0.4756740001085628,0.5552503585366314,1.287977819362973,-0.08612612634897232,2.588923215866089,-0.3262624740600586,-0.8972705602645874,-0.4418914318084717,-0.1270302534103394,2,-0.5095082043939216,-0.3490440999304282,-0.341115728789314,-0.7086675349957506,0.1471099257469177,-0.9602727293968201,-0.2371392101049423,-1.443206787109375,-49.91720581054688,10.03274536132812,2
1596232559.574879,95,0,104891.7910992917,0.400600541686476,0.7182929434570446,1.28109919275493,0.7951047420501709,2.634116649627686,-1.019505858421326,-0.5060293674468994,0.1254749894142151,-0.09926074743270874,2,-0.4922508488712862,-0.3874886322309882,-0.3551993813050902,-0.693811898406658,0.187994047999382,-0.9583304524421692,-0.2150833159685135,-1.592628479003906,-49.78193664550781,10.17385864257812,2
1596232559.616159,96,0,104891.8211972917,0.2468079099393504,0.9166440591277341,1.276266748759141,0.8202598094940186,0.8059223294258118,-1.055975794792175,0.4698567986488342,-0.07845157384872437,0.08466094732284546,2,-0.4864129823757894,-0.4184300612194928,-0.3502226166874606,-0.6823948877086807,0.2303634136915207,-0.9569388031959534,-0.1766373962163925,-0.5035552978515625,-49.40873718261719,11.57046508789062,2
1596232559.635208,97,0,104891.8512952917,0.171977276446,0.9868827208124508,1.269081918868098,0.3293043375015259,-0.7097316980361938,-0.1617826223373413,0.3846346139907837,-0.08291113376617432,0.2418882846832275,2,-0.4874010023558816,-0.4248880293914534,-0.3406660551720242,-0.682537153481686,0.2479217797517776,-0.9548284411430359,-0.1638208478689194,0.197265625,-49.13801574707031,12.34420776367188,2
1596232559.676777,98,0,104891.8813932917,0.1163196931604863,1.034353191340652,1.278382126312613,0.6417940855026245,0.6113728284835815,-0.08234018087387085,-0.1015115976333618,0.1713302135467529,0.2355042099952698,2,-0.4945867270932807,-0.4262869981038204,-0.3350010824371568,-0.6792919110967091,0.2477724403142929,-0.9575507640838623,-0.147326722741127,0.5223388671875,-49.14561462402344,13.28121948242188,2
1596232559.695393,99,0,104891.9114912917,0.068392550996222,1.113544957296383,1.275100707602508,0.2588265836238861,1.089124321937561,-0.4919029772281647,-0.07998797297477722,-0.140227198600769,0.09511709213256836,2,-0.4905148323465071,-0.4416671575662703,-0.3376879793537459,-0.671038104501205,0.2614690661430359,-0.9565996527671814,-0.1286506354808807,0.728759765625,-48.9434814453125,13.87164306640625,2
1596232559.739157,100,0,104891.9415892917,0.02621872773506212,1.180787612788304,1.265876159509203,0.1535795927047729,0.6613535284996033,-0.3612591922283173,0.1338174939155579,-0.01694202423095703,0.1349359154701233,2,-0.485459053678936,-0.4552568527358831,-0.3380423514262723,-0.665430713309114,0.2776723504066467,-0.953870952129364,-0.1141414120793343,1.015953063964844,-48.63539123535156,14.42172241210938,2
1596232559.756389,101,0,104891.9716872917,0.003097860659054467,1.216436959097047,1.260040974476368,0.1516451239585876,0.367000550031662,-0.159487709403038,0.2253038585186005,0.03180223703384399,0.0788835883140564,2,-0.4827897339532493,-0.4624535431653793,-0.3376774255222118,-0.6625893041270571,0.2867791652679443,-0.9521028995513916,-0.1061015874147415,1.138847351074219,-48.73550415039062,14.61764526367188,2
1596232559.795896,102,0,104892.0017852917,-0.004013461850373051,1.234519808796013,1.258885312519998,0.03965272009372711,0.1441977024078369,-0.007374350912868977,0.0774090588092804,0.03530371189117432,0.07563793659210205,2,-0.4809990613186546,-0.4669143743847555,-0.3394146840968206,-0.6598699677066692,0.2896892428398132,-0.9517488479614258,-0.101261742413044,1.404914855957031,-48.52508544921875,14.98757934570312,2
1596232559.815915,103,0,104892.0318832917,-0.01807936643000818,1.247572768956398,1.257868969408561,0.1204130202531815,-0.00245068920776248,-0.1709086298942566,-0.05178970098495483,-0.01246803998947144,-0.06415534019470215,2,-0.481743898894641,-0.4680098984096616,-0.3376767597139371,-0.659442023528919,0.2919033467769623,-0.951436460018158,-0.09777910262346268,1.241233825683594,-48.56272125244141,14.93218994140625,2
1596232559.858616,104,0,104892.0619812917,-0.03242073203662212,1.263515945358326,1.251781829671393,0.1263722032308578,0.2483594566583633,-0.2879754900932312,-0.1034060716629028,0.02046477794647217,0.05883264541625977,2,-0.4804470120238044,-0.4708918943374714,-0.3353175284958905,-0.6595403187760713,0.2989397644996643,-0.9495449662208557,-0.09486298263072968,1.568954467773438,-48.37158966064453,15.18606567382812,2
1596232559.876035,105,0,104892.0920792917,-0.05357292566090757,1.296599367107849,1.247293627731492,0.09847993403673172,0.3229182362556458,-0.05074941366910934,0.1526789665222168,0.1392363309860229,0.05141556262969971,2,-0.4784738949683366,-0.4775193011020368,-0.3351807953109451,-0.6562710877975668,0.3060137033462524,-0.9481277465820312,-0.08607609570026398,1.723442077636719,-48.44405364990234,15.58395385742188,2
1596232559.916376,106,0,104892.1221772917,-0.0510430551964302,1.288600089228604,1.247981000704901,-0.1391581594944,-0.6459628939628601,-0.01300814561545849,-0.02218589186668396,-0.1986007690429688,0.2115635871887207,2,-0.4794294886417436,-0.4753709755270517,-0.3342684328774517,-0.6575972513679058,0.3046890199184418,-0.9483460783958435,-0.08833960443735123,1.768119812011719,-48.34247589111328,15.51840209960938,2
1596232559.936362,107,0,104892.1522752917,-0.03930947402200381,1.261361276617038,1.239621990512607,-0.1500396579504013,-0.1677656471729279,-0.4342893660068512,-0.2370871007442474,0.06460630893707275,0.03556334972381592,2,-0.4784782543671936,-0.470691681978085,-0.3295565581440519,-0.6640031063943436,0.3097101747989655,-0.9456611275672913,-0.09901580214500427,2.430061340332031,-48.55152130126953,15.02462768554688,2
1596232559.976272,108,0,104892.1823732917,-0.04286556331384943,1.263111823622024,1.226092982692821,-0.0007272474467754364,-0.2998083233833313,-0.3255522847175598,0.06453230977058411,0.1179184317588806,-0.2240208387374878,2,-0.4746224845564728,-0.4728255311955033,-0.3254691880527795,-0.6672623784023981,0.3220473825931549,-0.9411757588386536,-0.1023390293121338,2.804000854492188,-48.46185302734375,14.99691772460938,2
1596232559.996499,109,0,104892.2124712917,-0.0512602457315261,1.248975928007025,1.22031860939471,-0.04000109806656837,-0.9614239931106567,-0.203435942530632,0.1366442739963531,-0.1535773277282715,-0.1162012815475464,2,-0.4769793244953736,-0.4671097745983474,-0.3178727135848343,-0.673242907234879,0.3257192671298981,-0.9392088055610657,-0.1085983663797379,3.625953674316406,-48.54370880126953,15.0499267578125,2
1596232560.039272,110,0,104892.2425692917,-0.05314022309818223,1.224149133686336,1.211815890579003,-0.03876237198710442,-0.6353615522384644,-0.3307380080223083,0.04297664761543274,0.1583530902862549,0.1789239645004272,2,-0.4785014783238556,-0.459735308287006,-0.3092320395445679,-0.681216003185636,0.3304221332073212,-0.9362555146217346,-0.1193595603108406,4.017364501953125,-48.24185180664062,14.83966064453125,2
1596232560.056506,111,0,104892.2726672917,-0.05236355367320585,1.206194438189765,1.203816297561324,-0.1559754610061646,-0.6055080890655518,-0.0437956191599369,0.2304699718952179,0.0696110725402832,-0.0391654372215271,2,-0.4784052102140287,-0.4551470398603616,-0.3032743346524147,-0.6870183633725861,0.3352127075195312,-0.9334151744842529,-0.1279392540454865,4.811233520507812,-48.28865814208984,14.49591064453125,2
1596232560.098847,112,0,104892.3027652917,-0.04183857050952285,1.16861428386141,1.208192221287923,-0.009550833143293858,-1.061470866203308,0.2212503552436829,-0.01799967885017395,-0.1411011219024658,-0.1473380327224731,2,-0.4831738755013498,-0.4439835651999475,-0.2989032146700361,-0.6928769292668207,0.3264074921607971,-0.9349762797355652,-0.1388431936502457,5.133491516113281,-48.3995361328125,14.35836791992188,2
1596232560.116692,113,0,104892.3328632917,-0.03078470709131551,1.136758228163892,1.203641045346054,-0.2163930684328079,-0.4482807219028473,-0.3702032268047333,-0.1770183145999908,0.07346904277801514,0.1150704622268677,2,-0.4839045735420279,-0.4363001992685525,-0.2940077239530582,-0.6993124738484269,0.3256769776344299,-0.9333522915840149,-0.150957003235817,5.293197631835938,-48.42716217041016,13.7686767578125,2
1596232560.157379,114,0,104892.3629622917,-0.0343180265849073,1.131870170264066,1.190261580160012,-0.1504903882741928,-0.2916983366012573,-0.3595937192440033,-0.03961485624313354,0.03863668441772461,0.06586861610412598,2,-0.4807588075941431,-0.4358335811146848,-0.288568704137579,-0.7040227658846414,0.336209625005722,-0.9284661412239075,-0.1578401178121567,5.783905029296875,-48.45270538330078,13.55474853515625,2
1596232560.176934,115,0,104892.3930600417,-0.03149968871869935,1.116394522870152,1.183152423742166,-0.3136330544948578,-0.1903970241546631,-0.3782548606395721,0.04051494598388672,-0.1456447839736938,-0.09892809391021729,2,-0.4798875765447248,-0.4321451132298057,-0.2842494140599959,-0.7086329125957501,0.339648962020874,-0.9258022308349609,-0.1659170240163803,6.540260314941406,-48.52609252929688,13.2322998046875,2
1596232560.218409,116,0,104892.4231580417,-0.03091985599565611,1.103498223270477,1.16850228334656,0.1028524935245514,-0.5529259443283081,-0.2641164064407349,-0.06761422753334045,0.2351737022399902,-0.1085240840911865,2,-0.4764293453259851,-0.4299159899645636,-0.2781073693541591,-0.7147330713811784,0.3495533168315887,-0.9201652407646179,-0.1763746440410614,6.929786682128906,-48.56558227539062,13.01947021484375,2
1596232560.237101,117,0,104892.4532560417,-0.04207821875198764,1.102855406900948,1.162745749227966,-0.1484890133142471,-0.09324530512094498,-0.187594935297966,-0.1268081068992615,-0.1022871732711792,0.1990709900856018,2,-0.4768795503601907,-0.4278937800528329,-0.2726743571651817,-0.7177334552393505,0.3541617095470428,-0.9178961515426636,-0.1789856106042862,7.831192016601562,-48.34811401367188,12.9185791015625,2
1596232560.282919,118,0,104892.4833540417,-0.04229343047946386,1.103536566375473,1.160747511819768,-0.1460641920566559,0.2301276922225952,0.1384444236755371,0.1790254414081573,0.04828894138336182,-0.1229524612426758,2,-0.4761276711170005,-0.4283892752501993,-0.2723119551283822,-0.7180745448132353,0.3559203445911407,-0.9171013832092285,-0.1795701384544373,8.119781494140625,-48.30825042724609,12.7080078125,2
1596232560.297356,119,0,104892.5134520417,-0.0157981541546582,1.077311169187688,1.164187210393505,0.03686822578310966,-0.6988683342933655,0.2896658778190613,0.2121970653533936,-0.03299784660339355,-0.09384053945541382,2,-0.4752955391212562,-0.4247600582155873,-0.2763518978535315,-0.719237435215468,0.3483090102672577,-0.9184671640396118,-0.1873460859060287,7.721870422363281,-48.427490234375,12.15792846679688,2
1596232560.339865,120,0,104892.5435500417,-0.01146785172973869,1.053324272890878,1.169445257834577,-0.1176805049180984,-0.3884560465812683,-0.02100525423884392,-0.172833651304245,0.007413089275360107,0.08886444568634033,2,-0.4795662240868378,-0.4163999297785814,-0.2733092164992025,-0.7224467764435218,0.3395138382911682,-0.9205340147018433,-0.1932546645402908,7.63787841796875,-48.47116851806641,12.10531616210938,2
1596232560.35756,121,0,104892.5736480417,-0.01664862143201714,1.05584424713278,1.160979189568616,-0.006749936379492283,0.06224346533417702,-0.4248271584510803,-0.1697410941123962,0.03315412998199463,-0.02161294221878052,2,-0.4772572595949994,-0.4172657108286316,-0.2702450394017585,-0.7246256682915756,0.3467700779438019,-0.9171937108039856,-0.1962296664714813,7.877899169921875,-48.54349517822266,11.972900390625,2
1596232560.40031,122,0,104892.6037460417,-0.008853017218994421,1.050409198361555,1.151553208449673,-0.5014747977256775,0.1127898320555687,0.06261216104030609,-0.04705032706260681,-0.08058977127075195,0.05946004390716553,2,-0.472958242975794,-0.4184613848346916,-0.2697851438961446,-0.726922498461178,0.353183776140213,-0.9133973121643066,-0.2024011462926865,8.260101318359375,-48.60504150390625,11.50079345703125,2
1596232560.417747,123,0,104892.6338440417,0.005231544822540342,1.043883949280181,1.149765955011489,0.06797341257333755,0.2263009250164032,-0.05086597800254822,0.05946385860443115,0.0684206485748291,-0.07406258583068848,2,-0.4702433791753842,-0.4196546969251286,-0.272989856030024,-0.726799557955028,0.3532663583755493,-0.9126682877540588,-0.2055221945047379,8.091560363769531,-48.6932373046875,11.421142578125,2
1596232560.462134,124,0,104892.6639420417,0.003896226695679835,1.04645348266705,1.14710727080054,-0.08749702572822571,-0.1230326592922211,-0.0593964047729969,0.1179271638393402,0.06566697359085083,-0.03259950876235962,2,-0.4692054860555425,-0.420633243376844,-0.2725524294931655,-0.7270687096314796,0.3558923602104187,-0.9115784764289856,-0.2058277726173401,8.129707336425781,-48.50850677490234,11.24655151367188,2
1596232560.477903,125,0,104892.6940400417,0.01161188153108892,1.033458870324102,1.144657229846527,-0.1706400662660599,-0.275838702917099,-0.05344723910093307,0.02373936772346497,-0.01662594079971313,0.01847481727600098,2,-0.4684615405172757,-0.4180370799085963,-0.2718062318109584,-0.7293216653463639,0.355105459690094,-0.9105684757232666,-0.2115775644779205,8.145401000976562,-48.34940338134766,11.22467041015625,2
1596232560.519253,126,0,104892.7241380417,0.009358403143892224,1.029739125956879,1.139778301778065,0.008845735341310501,-0.1265478134155273,-0.2221392393112183,0.00878027081489563,0.04396998882293701,-0.001306116580963135,2,-0.4676461712972385,-0.4167922301847583,-0.269106452339939,-0.7315551574753238,0.3581198155879974,-0.9085409045219421,-0.2151825875043869,8.521942138671875,-48.38803100585938,10.87203979492188,2
1596232560.538332,127,0,104892.7542360417,0.007594205405390817,1.026802027619638,1.135677349597363,-0.06438753008842468,-0.1396385431289673,0.0003919824957847595,0.07285815477371216,0.03259605169296265,0.003850042819976807,2,-0.4669005170824521,-0.4158412211057879,-0.2669286855870726,-0.7333682138607891,0.360671192407608,-0.9068198800086975,-0.2181599736213684,8.631820678710938,-48.45134735107422,10.82846069335938,2
1596232560.580674,128,0,104892.7843340417,0.0171402830922622,1.016913628646343,1.13648546620093,-0.1810805350542068,0.05493878945708275,0.1534752994775772,0.00732189416885376,-0.02882671356201172,0.02720743417739868,2,-0.4665401532759387,-0.4143370741322218,-0.2682883301195761,-0.7339525110410277,0.3578729033470154,-0.907160222530365,-0.2213301509618759,8.660850524902344,-48.29070281982422,10.712890625,2
1596232560.598324,129,0,104892.8144320417,0.03248392479755684,1.006879840841045,1.135168711042156,-0.1679505258798599,0.1407126486301422,-0.03196892887353897,-0.06955602765083313,0.04278457164764404,-0.04091757535934448,2,-0.4642272207263511,-0.414390029749487,-0.271320479600066,-0.7342744525070877,0.3566433191299438,-0.9066053628921509,-0.2255479842424393,8.510459899902344,-48.60984039306641,10.76272583007812,2
1596232560.639878,130,0,104892.8445300417,0.03601294244043912,1.006127522961283,1.131858645553502,0.03083481639623642,-0.04794948920607567,0.0186665803194046,0.04825550317764282,0.02224338054656982,-0.06916892528533936,2,-0.4623669716982101,-0.4153387147148082,-0.2717821493186393,-0.7347414289202252,0.359006941318512,-0.905203640460968,-0.2274210751056671,8.654800415039062,-48.67890167236328,10.397216796875,2
1596232560.658522,131,0,104892.8746280417,0.03630172163850411,1.001607515360368,1.135856316147869,0.04552729427814484,-0.1740253865718842,0.1459900140762329,0.01492097973823547,-0.00503242015838623,-0.02374434471130371,2,-0.4644084952959623,-0.4132555467542136,-0.271635165796772,-0.7346827736774484,0.3549241125583649,-0.9068953394889832,-0.2270892113447189,8.867134094238281,-48.58457183837891,10.46853637695312,2
1596232560.700666,132,0,104892.9047260417,0.02972635659513841,1.000145617972219,1.142587447951411,0.1184778958559036,-0.05176371335983276,0.1049477681517601,-0.05235365033149719,0.04713976383209229,-0.007677733898162842,2,-0.4684610664586204,-0.4103554527516282,-0.2702128630613714,-0.7342598596670376,0.3494466543197632,-0.9097109436988831,-0.2243052572011948,8.612037658691406,-48.79277801513672,10.49859619140625,2
1596232560.71874,133,0,104892.9348240417,0.03765388118755122,0.9956007188592108,1.143728549562665,-0.09102395176887512,0.1568708121776581,0.1538049578666687,0.005933582782745361,0.002499222755432129,0.04136240482330322,2,-0.4678745822213792,-0.4104024684812345,-0.2722835210557695,-0.7338425361511082,0.3475525081157684,-0.9101842045783997,-0.2253263741731644,8.391609191894531,-48.56916046142578,10.6475830078125,2
