loggingTime,loggingSample,identifierForVendor,motionTimestamp_sinceReboot,motionYaw,motionRoll,motionPitch,motionRotationRateX,motionRotationRateY,motionRotationRateZ,motionUserAccelerationX,motionUserAccelerationY,motionUserAccelerationZ,motionAttitudeReferenceFrame,motionQuaternionX,motionQuaternionY,motionQuaternionZ,motionQuaternionW,motionGravityX,motionGravityY,motionGravityZ,motionMagneticFieldX,motionMagneticFieldY,motionMagneticFieldZ,motionMagneticFieldCalibrationAccuracy
1596229543.892581,1,0,101876.054954,-0.5516322606898486,0.6625811133606783,1.305449666424629,-0.01306636445224285,0.3017677962779999,0.03953779116272926,-0.007624387741088867,0.01345789432525635,-0.0221598744392395,2,0.6229902383411703,0.09222529305211294,-0.01450198507070327,0.7766386127916186,0.1613206416368484,-0.96500164270401,-0.2067553102970123,-3.561912536621094,-48.80774688720703,9.11895751953125,2
1596229543.907359,2,0,101876.085049,-0.5461847813234019,0.6608539088445787,1.304718633077082,-0.02699793502688408,-0.07972362637519836,0.05555840209126472,0.07109549641609192,0.02818673849105835,-0.02993518114089966,2,0.6224807722350911,0.09339443451607085,-0.01307166846858959,0.7769326924099229,0.1613961011171341,-0.9648096561431885,-0.2075903415679932,-3.89825439453125,-48.90253448486328,8.90557861328125,2
1596229543.939931,3,0,101876.145238,-0.5401897506456759,0.6512427536310819,1.304771067658546,0.007619220763444901,-0.03334339335560799,-0.1285029947757721,-0.08216333389282227,0.01887792348861694,0.01223498582839966,2,0.6221569813399372,0.09151482126220761,-0.01372211613478297,0.7774042981518148,0.1593626588582993,-0.9648234844207764,-0.209091454744339,-3.908866882324219,-48.74946594238281,8.8531494140625,2
1596229543.974883,4,0,101876.175333,-0.5576309249892419,0.6676655125155808,1.30171439009684,-0.02334027923643589,-0.04051078855991364,-0.1423307508230209,-0.01262623071670532,0.007576286792755127,-0.02497982978820801,2,0.6220583877556864,0.09307323364462888,-0.01600909152873548,0.77725453220233,0.1646003574132919,-0.9640153646469116,-0.2087614685297012,-3.921951293945312,-48.73960876464844,8.76922607421875,2
1596229544.007801,5,0,101876.205428,-0.5583406774214583,0.667970719256303,1.300936853889383,0.05206142365932465,0.09883873164653778,0.06350819766521454,0.03302723169326782,0.01220375299453735,-0.02127617597579956,2,0.6218342210785472,0.09312580801301429,-0.01634875175961115,0.7774205073513252,0.1651282459497452,-0.9638083577156067,-0.2092995643615723,-3.598648071289062,-48.62799072265625,8.900146484375,2
1596229544.042679,6,0,101876.235523,-0.5561714512612586,0.6710399721315893,1.30327108745347,0.007231820374727249,0.1478689461946487,0.02913571149110794,-0.01120314002037048,-0.004258275032043457,0.02026188373565674,2,0.62253492604182,0.09452858097580494,-0.01407411807086001,0.7767346161999494,0.1643705070018768,-0.9644280672073364,-0.2070292234420776,-3.568008422851562,-48.49002838134766,8.89068603515625,2
1596229544.093633,7,0,101876.265618,-0.5563917375863926,0.6726982192541955,1.303129680264511,0.0149849122390151,-0.02994377724826336,-0.03250578790903091,0.01424208283424377,0.02046924829483032,-0.05938994884490967,2,0.6225097801950288,0.09513213976214871,-0.01367241220330268,0.7766882170397443,0.1647984385490417,-0.9643906354904175,-0.2068628966808319,-3.615371704101562,-48.64287567138672,8.89996337890625,2
1596229544.110604,8,0,101876.295712,-0.5633275254469167,0.6787011043636413,1.303357554758358,0.06736010313034058,-0.01930192485451698,-0.04358989000320435,0.05887231230735779,0.01731085777282715,-0.001929879188537598,2,0.6229578401102163,0.09525758215287797,-0.01444930113305226,0.7762994886849323,0.1658994406461716,-0.9644508957862854,-0.2056990414857864,-3.717178344726562,-48.54719543457031,9.25213623046875,2
1596229544.148323,9,0,101876.325807,-0.5775510740905209,0.6880671531465389,1.300945598792094,-0.0183698982000351,-0.3276281654834747,-0.3294960558414459,-0.01587304472923279,0.0203394889831543,-0.04548615217208862,2,0.6229108105418706,0.0949521687800666,-0.01755516715951083,0.7763105786456358,0.1692953556776047,-0.9638106822967529,-0.2059324085712433,-3.6207275390625,-48.79785919189453,9.08160400390625,2
1596229544.178171,10,0,101876.355902,-0.5998666316597696,0.6975365550373943,1.296197192258217,0.01587088778614998,-0.2120842337608337,0.08112777024507523,0.005198240280151367,0.004702627658843994,-0.090229332447052,2,0.622495616431832,0.09266331855457258,-0.02427740302868686,0.7767389825896175,0.1741755753755569,-0.9625339508056641,-0.2078254371881485,-2.779312133789062,-48.73849487304688,9.455902099609375,2
1596229544.210815,11,0,101876.416092,-0.6207277070766997,0.724374435841538,1.302599881235257,0.1858292818069458,0.1233624890446663,-0.4244653284549713,-0.1198281645774841,0.06019854545593262,-0.06191110610961914,2,0.6258670078274796,0.09519492609449276,-0.02259609606694696,0.7737685870706688,0.175601989030838,-0.964250385761261,-0.1984568238258362,-2.935142517089844,-48.53765869140625,9.396209716796875,2
1596229544.245842,12,0,101876.446186,-0.6562570969382187,0.7628019463936332,1.300624855388683,0.1422714293003082,0.1140337064862251,-0.0929722860455513,0.04003721475601196,-0.02244150638580322,-0.01270592212677002,2,0.6274229185509714,0.09934855964932598,-0.02473165692246476,0.7719189287873132,0.1844124794006348,-0.9637251496315002,-0.1929406970739365,-2.6871337890625,-48.62294769287109,9.59722900390625,2
1596229544.278534,13,0,101876.476281,-0.6764460566850975,0.7861187363350884,1.302311187869443,0.2116874605417252,0.1509489119052887,-0.173188105225563,-0.05957216024398804,0.04473984241485596,-0.03982508182525635,2,0.6292499790940959,0.1016093363118647,-0.02479528951709098,0.7701332931849975,0.1877103298902512,-0.9641738533973694,-0.1874400079250336,-2.671340942382812,-48.49706268310547,9.819915771484375,2
1596229544.329751,14,0,101876.506376,-0.7203258848675845,0.8314117151683553,1.301827657056212,0.3471250534057617,0.05951044335961342,-0.3477644920349121,-0.06670835614204407,0.04779863357543945,-0.1493415832519531,2,0.6319658216724126,0.1052980342477136,-0.02749779645837813,0.7673171289751854,0.1963493078947067,-0.9640454649925232,-0.1790630519390106,-2.826255798339844,-48.49391174316406,10.2899169921875,2
1596229544.346541,15,0,101876.536471,-0.7802679206784091,0.8930460693284089,1.302679522622507,0.443254292011261,0.1009678617119789,-0.2652092278003693,0.05027836561203003,0.02907603979110718,-0.09857416152954102,2,0.636331672172226,0.1096593572262669,-0.03067056853154126,0.7629654209840169,0.2063658982515335,-0.9642714858055115,-0.1661136597394943,-1.702407836914062,-48.26053619384766,10.9215087890625,2
1596229544.389561,16,0,101876.566566,-0.8434202105907015,0.9532637695238326,1.305590088464505,0.5351400971412659,-0.03561190888285637,-0.3030179440975189,-0.02609190344810486,0.06288820505142212,-0.1394472122192383,2,0.6416065733929158,0.1116121399933071,-0.03466159624098358,0.758078092425615,0.2136996537446976,-0.9650384783744812,-0.1517674773931503,-1.503501892089844,-48.45027160644531,11.1827392578125,2
1596229544.414076,17,0,101876.596661,-0.9150400764673852,1.02293479324235,1.304209273511976,0.505082905292511,0.1151370778679848,-0.4182653427124023,-0.07589158415794373,0.06703710556030273,0.04867404699325562,2,0.6466130191440527,0.1152536980868908,-0.03967403246085938,0.7530166813621753,0.2248834073543549,-0.9646756052970886,-0.1372163742780685,-0.87481689453125,-47.99646759033203,12.2528076171875,2
1596229544.450123,18,0,101876.626755,-0.9871651058465389,1.098529322700357,1.301847590103437,0.4734233021736145,0.2395388782024384,-0.3377656042575836,-0.009351521730422974,0.04852044582366943,0.01394480466842651,2,0.6518794411685107,0.1208911450182098,-0.04289601524017267,0.747394536465633,0.2366328239440918,-0.9640507698059082,-0.1208770498633385,-0.5353469848632812,-47.9453125,12.7618408203125,2
1596229544.484272,19,0,101876.6869445,-1.106814386830764,1.244957554312103,1.296577446374094,0.4616242647171021,0.8162681460380554,-0.3810749351978302,0.02813330292701721,0.03173792362213135,0.2181723117828369,2,0.6616177068850674,0.1375528317531017,-0.04086450886516607,0.7359832289217941,0.2565465271472931,-0.9626370072364807,-0.08668245375156403,0.2512664794921875,-47.47990417480469,14.505615234375,2
1596229544.517049,20,0,101876.7170395,-1.156577693209549,1.313139134247703,1.295305874718309,0.4772714972496033,0.7755613327026367,0.1061531081795692,0.09108787775039673,-0.03541505336761475,-0.08169788122177124,2,0.6662569917335848,0.1464382930365654,-0.03689320858090661,0.7302715545006933,0.263040155172348,-0.9622918963432312,-0.06931489706039429,0.2214584350585938,-47.21967315673828,14.82586669921875,2
1596229544.553414,21,0,101876.7471335,-1.198428920569452,1.381500162135383,1.300197762131654,0.2462208420038223,0.8338381052017212,-0.1210926920175552,0.00471767783164978,-0.04272991418838501,0.1341865658760071,2,0.6712764236063532,0.1556873941021406,-0.02759857803741211,0.7241462197355177,0.26253342628479,-0.9636110663414001,-0.05029879510402679,-0.4974441528320312,-47.15477752685547,15.50436401367188,2
1596229544.584414,22,0,101876.7772285,-1.23333115341374,1.433238393141617,1.29431797477476,0.3183550536632538,0.4292387962341309,-0.206340566277504,-0.01511526107788086,0.00963127613067627,-0.01737195253372192,2,0.6739396231255372,0.1645904026009569,-0.02481615337659321,0.7197912633188706,0.270390659570694,-0.9620227217674255,-0.0374307669699192,-0.36773681640625,-47.08123779296875,15.78359985351562,2
1596229544.63107,23,0,101876.8073235,-1.266701884727883,1.476716586840959,1.293281744599609,0.3226661086082458,0.2972574830055237,-0.04757042974233627,-0.02097433805465698,0.09338980913162231,-0.01207065582275391,2,0.6771103993192156,0.1692725049522156,-0.02246713686272672,0.7157957303093847,0.2727545499801636,-0.9617393016815186,-0.02573665231466293,-0.4448165893554688,-46.90132141113281,16.2449951171875,2
1596229544.65209,24,0,101876.8374185,-1.295550136025413,1.506131564687068,1.286630666987632,0.2280633002519608,-0.1565506309270859,-0.3758266270160675,0.04683637619018555,-0.07414281368255615,-0.3119823932647705,2,0.6791690424134201,0.1722530386782588,-0.02512216627640829,0.7130409206282535,0.2797713279724121,-0.95989590883255,-0.01811660453677177,-0.4123764038085938,-46.84337615966797,16.50204467773438,2
1596229544.691552,25,0,101876.8675135,-1.316073092916076,1.524632804686884,1.2764159065494,0.2002968341112137,0.04599084705114365,-0.3094804883003235,0.05564811825752258,-0.003898501396179199,0.05398541688919067,2,0.6801184563059853,0.1753401043505644,-0.02972499398509748,0.7112040948976961,0.2898382246494293,-0.9569820761680603,-0.01338946633040905,0.3132247924804688,-46.65796661376953,17.03155517578125,2
1596229544.719886,26,0,101876.8976085,-1.35412169464652,1.555226169738524,1.26984286155659,0.3842381536960602,-0.5246540307998657,-0.1013975888490677,0.1303024291992188,0.1075664758682251,-0.1525368690490723,2,0.6833033263851467,0.1754676983356252,-0.03510909144616331,0.7078666766697053,0.2963957786560059,-0.9550542831420898,-0.004615302197635174,0.6616363525390625,-46.37625122070312,17.20147705078125,2
1596229544.752396,27,0,101876.9577975,-1.411365659720499,1.585261740870514,1.263709271266861,0.1566139459609985,-0.05323575809597969,-0.3367710411548615,-0.05232840776443481,0.05446690320968628,0.1123884916305542,2,0.6883163180273457,0.1685434644143044,-0.04718003795633863,0.7039800567147693,0.3022520542144775,-0.9532181620597839,0.004372505936771631,1.392936706542969,-46.31079864501953,17.87689208984375,2
1596229544.787564,28,0,101876.9878925,-1.432132661725148,1.602000745003213,1.25836591856216,0.1833969205617905,-0.2688083350658417,0.05062564462423325,0.06197386980056763,-0.01688510179519653,0.01538074016571045,2,0.6900705295562094,0.1691081668489648,-0.05059851241772206,0.701886649845019,0.3072226047515869,-0.9515893459320068,0.009589815512299538,1.795677185058594,-46.14592742919922,18.46759033203125,2
1596229544.820448,29,0,101877.0179875,-1.443391567504412,1.600604189778975,1.259312596893803,0.03005512431263924,-0.429100900888443,-0.1194203123450279,-0.05562695860862732,-0.01436257362365723,0.1598395109176636,2,0.6910412658056255,0.1644047515587986,-0.05469717437069987,0.7017416295451699,0.3063353300094604,-0.9518799185752869,0.009133907034993172,1.984718322753906,-46.00410461425781,18.70950317382812,2
1596229544.865368,30,0,101877.0480815,-1.442931848005832,1.589197246842104,1.25202000318149,-0.01366212125867605,-0.2533327043056488,-0.224569171667099,0.001716136932373047,0.05860370397567749,0.09454095363616943,2,0.690138369922341,0.1630715764922424,-0.06104827937665191,0.702417193093513,0.3133520781993866,-0.9496196508407593,0.005766617599874735,2.245162963867188,-45.90236663818359,18.88433837890625,2
1596229544.887983,31,0,101877.0781765,-1.445337649587607,1.584550380418652,1.250373850559853,0.02185509167611599,-0.2616832554340363,0.04787357151508331,0.049395352602005,-0.01600193977355957,0.01086616516113281,2,0.6900639242995565,0.1611761549178781,-0.0640769805246435,0.7026579458861458,0.3149378299713135,-0.9491024613380432,0.004331944976001978,2.823768615722656,-45.89151000976562,18.67864990234375,2
1596229544.930461,32,0,101877.1082715,-1.441956398741926,1.572653489175489,1.24858438288948,-0.0672537237405777,-0.2172636240720749,-0.2008264511823654,-0.002769559621810913,-0.01652872562408447,0.06678366661071777,2,0.6892635574240084,0.1587759354115545,-0.06762080107829577,0.7036571093489159,0.3166647255420685,-0.948537290096283,0.0005880985409021378,2.785530090332031,-46.11248016357422,18.52691650390625,2
1596229544.955647,33,0,101877.1383665,-1.434773026714343,1.56604052439464,1.243263631440691,-0.0682927742600441,0.1892078816890717,-0.05629205331206322,-0.03892800211906433,0.0410306453704834,0.146597146987915,2,0.6880356651061825,0.1607542720072708,-0.0692417812236909,0.7042518647232481,0.321704626083374,-0.9468389749526978,-0.001529975095763803,3.207733154296875,-45.84968566894531,18.51296997070312,2
1596229544.990543,34,0,101877.1684615,-1.425371517758661,1.561170483496177,1.243619398927491,-0.1574141532182693,-0.04264160245656967,-0.00847904197871685,0.07322615385055542,-0.03897702693939209,-0.08096015453338623,2,0.6871399039958082,0.1621482108502035,-0.06747862371896635,0.7049775743516211,0.3213562071323395,-0.9469533562660217,-0.003093420062214136,3.224433898925781,-45.96408843994141,18.44430541992188,2
1596229545.023392,35,0,101877.2286505,-1.392512091294455,1.51821429271242,1.234748261751174,-0.130560576915741,0.0357268713414669,-0.07960155606269836,-0.05341744422912598,0.0502437949180603,0.07593870162963867,2,0.6821522035653479,0.1612534361156517,-0.07367799459103003,0.7093921811448772,0.3293030560016632,-0.9440652132034302,-0.01733140088617802,3.625312805175781,-46.12763214111328,17.95010375976562,2
1596229545.058288,36,0,101877.2587455,-1.377772961228058,1.509226342234786,1.235693260929581,-0.2575610280036926,0.2250490039587021,0.05644343420863152,-0.07546088099479675,-0.05814445018768311,0.1474238038063049,2,0.6807283267455762,0.1627611212285515,-0.07117720767077101,0.7106698413860293,0.3282435238361359,-0.9443764090538025,-0.02023552544414997,3.699745178222656,-45.96543884277344,17.87533569335938,2
1596229545.10867,37,0,101877.2888405,-1.349530440736327,1.488098195820792,1.231395913298903,-0.3476005494594574,0.1342649757862091,-0.2446583360433578,-0.03382185101509094,-0.01550263166427612,0.09799230098724365,2,0.6771972852403638,0.1662934024110931,-0.06979592300501147,0.7133575949680413,0.3317845463752747,-0.942954421043396,-0.02750068157911301,3.638847351074219,-46.3359375,17.5699462890625,2
1596229545.12605,38,0,101877.3189355,-1.312207862197022,1.457302946764802,1.225908662049284,-0.5065673589706421,0.183205708861351,0.01216577179729939,0.1206833124160767,-0.006717443466186523,0.1883151531219482,2,0.6723439517395593,0.1697328007913896,-0.06874541440925691,0.7172297296953137,0.3359159529209137,-0.9411134123802185,-0.03828877210617065,3.834686279296875,-46.55597686767578,16.62728881835938,2
1596229545.164228,39,0,101877.3490295,-1.263318001534724,1.413508661201556,1.227803814923661,-0.5797817707061768,-0.03769562765955925,0.222996860742569,0.06773090362548828,0.01863408088684082,0.01391643285751343,2,0.6669796770375117,0.169701361970557,-0.06515676743488652,0.7225608959530645,0.3321556150913239,-0.9417524933815002,-0.05267911776900291,3.69378662109375,-46.57679748535156,16.05517578125,2
1596229545.194015,40,0,101877.3791245,-1.195550197025818,1.353499525393631,1.227160144677021,-0.9971921443939209,0.3185234665870667,-0.07351603358983994,-0.006682872772216797,-0.01249980926513672,0.2315404415130615,2,0.6592269498719653,0.1705936151427646,-0.06066545509659188,0.7298200526580947,0.3289898931980133,-0.9415358304977417,-0.07263529300689697,3.403785705566406,-47.09452819824219,15.13180541992188,2
1596229545.22816,41,0,101877.4092195,-1.105741430165358,1.278186480816032,1.215769613405339,-1.013772010803223,0.2053439766168594,0.008639276959002018,0.08287614583969116,-0.03736996650695801,0.2340908646583557,2,0.6472309377693677,0.1759457425988936,-0.05607347644474309,0.7395883958929761,0.3328398466110229,-0.9376372098922729,-0.1002704203128815,3.336769104003906,-47.41532897949219,14.13824462890625,2
1596229545.261625,42,0,101877.4393145,-1.010308800933649,1.19621946563071,1.208983738472317,-1.432982325553894,0.5868855118751526,0.1584748774766922,0.009369164705276489,-0.07446503639221191,0.402985692024231,2,0.6352269147369589,0.1781339116828351,-0.04900663977718522,0.7499022988590918,0.3294267356395721,-0.9352567791938782,-0.1295101493597031,3.139991760253906,-47.84587860107422,12.22940063476562,2
1596229545.294383,43,0,101877.4995035,-0.7163928176508912,1.005078543645582,1.146492861378641,-4.101251602172852,3.251063823699951,-0.2268834710121155,-0.2578779458999634,0.03237462043762207,0.09069538116455078,2,0.5870058242050681,0.2123388667351704,-0.01347606144387481,0.781124013621929,0.3475470244884491,-0.9113256931304932,-0.2206727415323257,2.5634765625,-48.61937713623047,7.215728759765625,2
1596229545.329347,44,0,101877.5295985,-0.4418178470318712,0.9517092609263355,1.042872098665928,-5.781368255615234,8.458297729492188,-0.5144574642181396,-0.555133581161499,-0.08901488780975342,0.5669319033622742,2,0.519061868603983,0.2905447751882793,0.05375662537244119,0.8020403923902791,0.410251259803772,-0.8638545870780945,-0.2923170328140259,2.270645141601562,-49.28069305419922,2.914886474609375,2
1596229545.36192,45,0,101877.5596935,-0.2098860930438703,1.023266752527575,0.9328673382417045,-5.281877994537354,9.525110244750977,-1.154034376144409,-1.269864559173584,-0.2315646409988403,0.8950222134590149,2,0.4357677483133141,0.3938214055835347,0.1373846056213904,0.7975817865983037,0.5084739923477173,-0.8033308386802673,-0.3100223541259766,4.243934631347656,-48.68680572509766,-6.582427978515625,2
1596229545.408067,46,0,101877.5897885,-0.03508377041627839,1.178365789256248,0.8082163397970923,-5.246850490570068,9.089406967163086,-2.685022115707397,-0.3016296029090881,0.04881983995437622,0.9382338523864746,2,0.3358154092676286,0.5051107600155721,0.205050994402466,0.7681441209685206,0.6382771730422974,-0.7230561971664429,-0.2641822695732117,7.250579833984375,-47.47372436523438,-10.62628173828125,2
1596229545.429675,47,0,101877.6198825,0.1357998388298623,1.318070005004834,0.6823989715071445,-5.139306545257568,8.221188545227051,-2.174186944961548,0.4199931621551514,0.4050530195236206,0.8199290037155151,2,0.2247817773189797,0.5936733890456702,0.2549796093502111,0.7293904646654357,0.7514098882675171,-0.6306565999984741,-0.1940501183271408,16.14751434326172,-43.48250579833984,-15.31793212890625,2
1596229545.466683,48,0,101877.649978125,0.2914497546928671,1.466374847016013,0.6248078541834011,-3.662853240966797,7.406510829925537,-0.1881679594516754,1.316266775131226,0.8272976875305176,0.3542587757110596,2,0.1334756528337163,0.6632603579497557,0.3061840592602675,0.6697174266885577,0.8066577911376953,-0.5849414467811584,-0.08453989773988724,20.64956665039062,-41.29347991943359,-16.42453002929688,2
1596229545.497408,49,0,101877.680073125,0.4003734589994959,1.579055893319034,0.6204060381010608,-2.344182014465332,4.240390777587891,-0.1058486253023148,0.988904595375061,0.4935659766197205,-0.3726893663406372,2,0.07620920857306746,0.7053738622099957,0.3457516076387459,0.6140812006587454,0.8136147260665894,-0.5813655853271484,0.006720257923007011,26.02783966064453,-38.25611877441406,-15.3828125,2
1596229545.533784,50,0,101877.710168125,0.4677053046753884,1.638361502222511,0.616439007179559,-1.194726347923279,2.135926723480225,-0.03634154051542282,0.6983321905136108,0.4060927629470825,-0.2142708301544189,2,0.04018517768771462,0.7252095091537895,0.3663713325494474,0.5815741221654538,0.8140807747840881,-0.5781332850456238,0.05508736148476601,28.63075256347656,-36.74163055419922,-14.19747924804688,2
1596229545.568009,51,0,101877.770357125,0.4058983875896826,1.552868156862361,0.6713498588228487,2.223888874053955,-5.243109226226807,0.630125880241394,1.220556020736694,1.165429830551147,-0.1067837476730347,2,0.09682357024004684,0.695418469694174,0.3618608427816361,0.6132496570727042,0.7828569412231445,-0.6220434904098511,-0.01403669640421867,24.89443206787109,-38.97306060791016,-15.55072021484375,2
1596229545.600606,52,0,101877.800452125,0.3320124193367167,1.422579530306332,0.6871248799001115,1.473331928253174,-5.728565692901611,0.4484726190567017,0.1323686838150024,0.1693676710128784,0.3713047504425049,2,0.1500883766750576,0.6483762887301292,0.3347333360516787,0.667109664318424,0.7645969986915588,-0.6343171000480652,-0.1141633316874504,22.75619506835938,-39.8193359375,-16.61785888671875,2
1596229545.650259,53,0,101877.830547125,0.3104648693690438,1.316749501746887,0.722572408341675,0.01192265376448631,-1.724969148635864,1.6688472032547,-0.5389416217803955,-0.8149320483207703,0.4602891802787781,2,0.1877461071383768,0.6086804066501639,0.3280679167052435,0.6975894669538408,0.7260311245918274,-0.661316454410553,-0.1885191202163696,18.12534332275391,-41.54780578613281,-18.83322143554688,2
1596229545.668155,54,0,101877.860642125,0.3480428148416134,1.296919499772337,0.7608370935302023,-0.6163946390151978,1.655677676200867,0.774630606174469,-1.191328048706055,-0.2925409078598022,0.5091370940208435,2,0.1943729497957678,0.6035523897071249,0.3490016515818435,0.6900301658133413,0.6972657442092896,-0.6895279884338379,-0.1958873420953751,16.52689361572266,-41.78501892089844,-19.32958984375,2
1596229545.711034,55,0,101877.890736125,0.3550270960550663,1.373254204114229,0.7582913632631963,0.08108726888895035,3.385775327682495,-0.5929235816001892,-0.8465453386306763,0.09442824125289917,0.4312544465065002,2,0.1777622211418429,0.6302039928562375,0.3578165169636324,0.665740902999327,0.7118926048278809,-0.6876819729804993,-0.142487034201622,17.32795715332031,-41.7384033203125,-18.66854858398438,2
1596229545.735546,56,0,101877.920831125,0.3516593948280025,1.461665388797248,0.7388854935844595,-0.2768924236297607,2.150078058242798,-0.559269905090332,-0.2979412078857422,-0.5601755380630493,0.2939621210098267,2,0.1558503736966086,0.6598900022092034,0.3587758269643686,0.6415105008680131,0.7348220348358154,-0.6734644770622253,-0.08051168918609619,19.15989685058594,-41.83078002929688,-17.51547241210938,2
1596229545.768404,57,0,101877.950926125,0.3751546380616038,1.507845961334973,0.7292698177478079,-0.7944068908691406,1.909947752952576,0.0992787703871727,0.4889435172080994,-0.1751515865325928,0.1911717653274536,2,0.1361569325366381,0.6767621174700571,0.3668251743911697,0.6236134196921987,0.7441843152046204,-0.6663253307342529,-0.04690865054726601,21.51161193847656,-41.07044219970703,-16.50411987304688,2
1596229545.803252,58,0,101877.981021125,0.3965310688306491,1.526545527456521,0.7430239843133606,-0.09255359321832657,0.1631994396448135,0.7506150603294373,0.659659743309021,0.4192217588424683,-0.2339033484458923,2,0.1303009583154468,0.6831787860390912,0.3786549749038164,0.6106626246287704,0.7357053160667419,-0.6765179634094238,-0.03257681429386139,21.71063232421875,-40.74650573730469,-16.22549438476562,2
1596229545.8359,59,0,101878.041210125,0.3916180177078693,1.498604845601057,0.7734544220084659,0.003262728452682495,-0.3477416932582855,0.2866547405719757,-0.1026483774185181,0.0393107533454895,-0.03950977325439453,2,0.1481321130587365,0.6724973882908217,0.3839145479020156,0.6151535317680936,0.7136381268501282,-0.6986110210418701,-0.05160827934741974,19.97055816650391,-41.36701965332031,-16.48388671875,2
1596229545.872252,60,0,101878.071305125,0.3966456570323872,1.492638184572787,0.7815466488685948,-0.2376578003168106,0.249082088470459,0.2581045031547546,-0.2843789458274841,-0.1021387577056885,0.05924922227859497,2,0.1504906430667324,0.6705531251428013,0.3872915402716624,0.6145864025347199,0.7076581716537476,-0.7043781280517578,-0.05542214587330818,19.23332214355469,-41.73415374755859,-16.85025024414062,2
1596229545.903838,61,0,101878.101400125,0.4096612958811516,1.498482672592631,0.7865366683674468,-0.2347688972949982,0.6234638094902039,0.09828653931617737,-0.2149410247802734,0.002042829990386963,0.09326660633087158,2,0.1467646074281942,0.6730117315005191,0.3931039263430074,0.6090850587247455,0.7044553160667419,-0.7079113721847534,-0.0510307177901268,19.04682159423828,-41.89983367919922,-16.70535278320312,2
1596229545.948655,62,0,101878.131494125,0.4136883524398287,1.512571007141946,0.785887860752305,-0.04114468395709991,0.4039512276649475,-0.1074283942580223,-0.08199930191040039,0.06812179088592529,0.01145535707473755,2,0.1423970488044025,0.6776127422603957,0.3951613273961659,0.6036651207621606,0.7055627703666687,-0.7074529528617859,-0.04112810268998146,19.65074157714844,-41.81613159179688,-16.73892211914062,2
1596229545.971418,63,0,101878.161589125,0.4107245113606824,1.521326982231876,0.7839436615601378,0.1871864199638367,-0.06413730978965759,0.04635251313447952,0.2571997046470642,0.03215140104293823,-0.03480660915374756,2,0.1409843960012436,0.6801581164409163,0.3943390049295201,0.6016686974436282,0.7072684168815613,-0.706077516078949,-0.03501667454838753,19.84042358398438,-41.54902648925781,-16.45681762695312,2
1596229546.007837,64,0,101878.191684125,0.4037750372956248,1.510751803241954,0.7912225006480549,0.1697594076395035,-0.9368237257003784,0.3974873423576355,0.3338011503219604,0.003877580165863037,-0.08241415023803711,2,0.1480079143799836,0.676018786116343,0.3935360606976703,0.6051624110856724,0.7017093896865845,-0.7112131714820862,-0.04218451678752899,19.56963348388672,-41.76607513427734,-16.59628295898438,2
1596229546.039184,65,0,101878.221779125,0.3949896707183356,1.477407251925171,0.8042442357709833,0.2535894215106964,-1.540267825126648,0.3536026775836945,0.0809558629989624,-0.02427691221237183,-0.08529484272003174,2,0.1621552207821684,0.664351421310505,0.3918971168060892,0.6154343795746204,0.6906330585479736,-0.7203066349029541,-0.06468574702739716,17.93262481689453,-42.27558898925781,-16.89492797851562,2
1596229546.073977,66,0,101878.251873125,0.3871210238754649,1.445223523277725,0.8130418839854838,0.1608756333589554,-0.8263493776321411,0.2426583766937256,-0.0821419358253479,-0.03489100933074951,0.02689725160598755,2,0.1742104284725996,0.6531549886195758,0.389145921488304,0.6257834175407451,0.6818805932998657,-0.7263811826705933,-0.08607857674360275,17.40408325195312,-42.49380493164062,-17.1585693359375,2
1596229546.106809,67,0,101878.312063125,0.3863985244285533,1.426195889280471,0.8352011755507643,-0.009226796217262745,-0.02759949862957001,0.332101583480835,-0.1553585529327393,-0.02574437856674194,0.03928565979003906,2,0.1862315260877889,0.6457330590503869,0.3931160058701602,0.6275401488447088,0.6640256643295288,-0.7414315342903137,-0.09669326990842819,16.07491302490234,-42.98107147216797,-17.532958984375,2
1596229546.142099,68,0,101878.342158125,0.3902531229372531,1.423904454506212,0.841878808790734,-0.04018337279558182,-0.04502724856138229,0.155155211687088,-0.1573106050491333,-0.0625874400138855,-0.05588692426681519,2,0.1878755008845587,0.6449487816878898,0.3958676070682318,0.6261252188484052,0.6588897705078125,-0.7458958625793457,-0.09748773276805878,15.41799163818359,-42.96184539794922,-17.55816650390625,2
1596229546.189997,69,0,101878.372253125,0.3887637688846462,1.419150326669887,0.8453280212226852,0.08206762373447418,-0.267671674489975,0.06187072396278381,-0.01007211208343506,-0.0003733038902282715,-0.2322160601615906,2,0.1905551328905429,0.6430970703480612,0.3958547595906756,0.6272271806578746,0.6558716297149658,-0.7481887936592102,-0.100229799747467,15.32498931884766,-42.97219085693359,-17.53854370117188,2
1596229546.209514,70,0,101878.402347125,0.387535430292373,1.406027411694295,0.8484553482443343,0.04900042712688446,-0.795001208782196,0.2045025825500488,0.2978439927101135,-0.004301786422729492,-0.2248088121414185,2,0.1946879730373947,0.6386507863323246,0.3950180930339307,0.6310169803145811,0.6521884202957153,-0.750260055065155,-0.1084435358643532,14.97457122802734,-43.24787902832031,-17.7752685546875,2
1596229546.251109,71,0,101878.432442125,0.3867014515557984,1.376836870597307,0.8601832448994052,0.0661560520529747,-1.0603346824646,0.5114198923110962,0.07955074310302734,-0.002021312713623047,0.06119871139526367,2,0.205036165983179,0.6285668809257674,0.3948345921144649,0.6379416252268304,0.6400672197341919,-0.7579621076583862,-0.1257276982069016,14.37742614746094,-43.34218597412109,-17.90884399414062,2
1596229546.277184,72,0,101878.462537125,0.3909747077157636,1.34324895900224,0.8725501255911827,-0.0534365102648735,-0.9155092835426331,0.2190911769866943,-0.2868131399154663,-0.003198802471160889,0.329715371131897,2,0.2149407989041106,0.6174849725613811,0.3957512521708075,0.6448983578109526,0.6263039112091064,-0.7659708261489868,-0.1450255215167999,12.72759246826172,-43.43968963623047,-18.63442993164062,2
1596229546.311381,73,0,101878.492632125,0.3929668669933613,1.317237161271566,0.8709707382149929,-0.05783791840076447,-0.8016670942306519,-0.2222284376621246,-0.2979239225387573,-0.007142782211303711,0.3322876691818237,2,0.2188677031951649,0.6093540657744845,0.3931943782296075,0.6528266719416829,0.6234900951385498,-0.7649545073509216,-0.1615691035985947,12.31373596191406,-43.54347991943359,-19.00656127929688,2
1596229546.345075,74,0,101878.522726125,0.3896203674376737,1.298432616637364,0.8629659760226764,0.02465321123600006,-0.5072453022003174,-0.3132489621639252,-0.09611517190933228,-0.1097425818443298,0.1785345077514648,2,0.2205286038957863,0.6032529834027109,0.3881216198750471,0.6609194571511964,0.6262194514274597,-0.7597743272781372,-0.1749059408903122,12.17251586914062,-43.28588104248047,-19.21881103515625,2
1596229546.377546,75,0,101878.582916125,0.3540828301014201,1.246666554215356,0.8580501381043394,1.065436720848083,-3.078138589859009,-0.1800757646560669,0.2617196440696716,0.05775535106658936,0.05080324411392212,2,0.2389831727533264,0.582027883600765,0.3690702566770317,0.6840452311872848,0.6198636293411255,-0.756568968296051,-0.208261176943779,11.38787078857422,-43.37429046630859,-19.26763916015625,2
1596229546.430608,76,0,101878.613011125,0.2774045186490344,1.170401678623063,0.8629469909198371,2.299095153808594,-5.738779067993164,-0.7483010292053223,0.2956767082214355,0.1827409267425537,0.02843266725540161,2,0.27590212334285,0.5451235704217818,0.3334758608484633,0.7179917427595239,0.5987750291824341,-0.7597619891166687,-0.2534366250038147,10.28910827636719,-43.74251556396484,-19.00839233398438,2
1596229546.445357,77,0,101878.6431047917,0.1244353340705543,1.092265713555476,0.8806978725511121,4.020942687988281,-6.96461296081543,-0.8378523588180542,0.6136084794998169,0.1009301543235779,0.08253830671310425,2,0.3343336433078462,0.4915777748271472,0.2690272272963686,0.7577576174128521,0.5651038885116577,-0.7711833119392395,-0.2931446135044098,7.756767272949219,-45.58190155029297,-16.981201171875,2
1596229546.49031,78,0,101878.6731997917,-0.06310271884084723,1.007636891544172,0.9329897348444405,4.194398403167725,-8.196475982666016,0.1903508454561234,0.7108833789825439,0.2437319159507751,0.4193992018699646,2,0.407280265353705,0.4185490689708141,0.1923487277036654,0.7886325627783312,0.5034831762313843,-0.8034037351608276,-0.317878931760788,4.386955261230469,-47.69351959228516,-11.4261474609375,2
1596229546.513177,79,0,101878.7032947917,-0.2192124419728283,0.9038170639402823,1.019878082221396,3.785825967788696,-7.473159313201904,1.004896998405457,0.4268779158592224,0.4527777433395386,0.7530169486999512,2,0.4781789367789263,0.3308044748339876,0.1259901268956529,0.8037660730693368,0.4112871885299683,-0.8520442247390747,-0.3238266110420227,2.378242492675781,-48.52367401123047,-8.484405517578125,2
1596229546.550326,80,0,101878.7333897917,-0.3047868421023417,0.7429288364683974,1.109037497869849,2.295923233032227,-7.788273334503174,1.575178742408752,-0.2193778157234192,0.2107502818107605,0.3117230534553528,2,0.5317819797292616,0.2305341705641107,0.06865168584289366,0.8120030362154027,0.3013734221458435,-0.8952702879905701,-0.3281238377094269,-1.599746704101562,-49.58547210693359,-2.17584228515625,2
1596229546.581097,81,0,101878.7634837917,-0.2944256388044048,0.5393860745003336,1.18596908504365,1.663482069969177,-5.090603351593018,1.519836783409119,-0.5506093502044678,0.1803089380264282,-0.1395699381828308,2,0.5652211000756239,0.1395506037661603,0.03004125246860229,0.8124951013140085,0.1928084641695023,-0.9268633127212524,-0.3221014738082886,-3.37445068359375,-49.29187774658203,0.058380126953125,2
1596229546.617353,82,0,101878.7935787917,-0.2634757895311902,0.398220742495653,1.233556796326651,0.8540536165237427,-2.363310098648071,0.5295342803001404,-0.7027372717857361,0.04424953460693359,0.2002866268157959,2,0.5832644417442432,0.08547710126467709,0.008379622058683978,0.8077289255868749,0.128309577703476,-0.9436716437339783,-0.3049925267696381,-5.301277160644531,-49.02481842041016,3.635589599609375,2
1596229546.65156,83,0,101878.8537687917,-0.247968461365476,0.3064021175935867,1.254449482093726,0.6689733862876892,-1.107171654701233,0.07612059265375137,-0.1269887089729309,0.2543686032295227,-0.09100103378295898,2,0.590853433813736,0.05087761030376631,-0.01008037581804871,0.8051099633322591,0.09383618831634521,-0.9503782391548157,-0.2966073751449585,-5.929656982421875,-49.14536285400391,4.95574951171875,2
1596229546.685824,84,0,101878.8838627917,-0.2612447560690002,0.2708066420000187,1.284871482247007,1.170461297035217,-2.016502618789673,0.1665412932634354,-0.0659383237361908,0.0642622709274292,-0.01041412353515625,2,0.6026833370776697,0.02983206640983785,-0.02313979273079564,0.7970867716925042,0.07544942945241928,-0.9594011902809143,-0.2717656791210175,-5.870719909667969,-48.87882232666016,5.863861083984375,2
1596229546.72777,85,0,101878.9139577917,-0.2678649392838983,0.2193426691502386,1.308047948809959,0.0508730337023735,-1.576032757759094,0.1321180611848831,-0.2422636449337006,-0.4796841144561768,0.02817368507385254,2,0.6109133864901828,0.005336471859768543,-0.03934789296356989,0.7907010665144356,0.0565154179930687,-0.9656797647476196,-0.2535127103328705,-5.487472534179688,-48.69530487060547,8.18450927734375,2
1596229546.751182,86,0,101878.9440527917,-0.2779498289057974,0.2207807412317897,1.301995113753385,0.09939701110124588,1.280073165893555,-0.504452109336853,-0.8173390030860901,-0.2452419996261597,0.03177523612976074,2,0.6086245410350226,0.003355898880829711,-0.04341052145187435,0.7922629269475074,0.05815892666578293,-0.9640899300575256,-0.2591298222541809,-5.366378784179688,-48.62208557128906,8.026885986328125,2
1596229546.789094,87,0,101878.9741477917,-0.3807513370450324,0.38547275230364,1.310728386383319,0.7453233599662781,2.503989458084106,-0.9218694567680359,-0.5404449105262756,0.2587493062019348,0.4229534864425659,2,0.6160929076444843,0.03592935271368719,-0.03261899755341785,0.7861772604929635,0.09668634831905365,-0.9663724899291992,-0.2382772266864777,-4.943916320800781,-48.8218994140625,8.148345947265625,2
1596229546.818834,88,0,101879.0042427917,-0.5084519146203758,0.5715204499919746,1.3169267688806,0.6081088781356812,1.530704617500305,-0.6927155256271362,0.1651405096054077,0.07946789264678955,0.04960775375366211,2,0.6242902605429426,0.0681371169378692,-0.02390704011702632,0.7778479027505231,0.1358504891395569,-0.9679478406906128,-0.2112380117177963,-4.406654357910156,-48.5888671875,8.7789306640625,2
1596229546.851625,89,0,101879.0343367917,-0.5781978059488398,0.6671965538412409,1.321737870979784,0.3269339203834534,0.3689294755458832,-0.06833268702030182,0.4514971673488617,-0.2257459163665771,-0.1254267692565918,2,0.6295931762394545,0.08243559918072393,-0.02001190054855989,0.7722799076346887,0.1525254249572754,-0.9691449403762817,-0.1936336159706116,-3.816070556640625,-48.4742431640625,9.688323974609375,2
1596229546.886658,90,0,101879.0644317917,-0.6115052273005357,0.7047735357834858,1.328522864829238,0.3805813789367676,0.3434214293956757,-0.2961370944976807,-0.00576019287109375,-0.04818606376647949,0.1266874670982361,2,0.6335616472117634,0.08498542619715763,-0.01954183479341076,0.7687622852484235,0.1554290950298309,-0.9707950353622437,-0.1827542334794998,-3.5621337890625,-48.50837707519531,9.97125244140625,2
1596229546.919329,91,0,101879.1246217917,-0.7133240854206696,0.8403253650033157,1.33540835824261,0.2338400334119797,0.54295814037323,0.2200985252857208,-0.05242782831192017,-0.1356009244918823,0.2027891278266907,2,0.6415872769245885,0.1027668990986434,-0.01364462342003836,0.7600122374144248,0.1737166345119476,-0.9724239110946655,-0.1556094586849213,-3.386070251464844,-48.72861480712891,10.92559814453125,2
1596229546.964944,92,0,101879.1547157917,-0.7361346379430965,0.8765340580374889,1.3351913089624,0.1349988877773285,0.3789482116699219,-0.462149441242218,-0.0223725438117981,0.01736301183700562,0.006234288215637207,2,0.6429544505390437,0.1092366883507455,-0.0107283362563213,0.7579985986730333,0.1793981790542603,-0.9723733067512512,-0.1493538469076157,-3.596542358398438,-48.28386688232422,11.25933837890625,2
1596229546.987001,93,0,101879.1848107917,-0.7831452221036139,0.9323146307997452,1.329814188347903,0.1633766740560532,0.333607941865921,-0.08424752205610275,0.2206991314888,0.04609084129333496,-0.02785074710845947,2,0.6444289850848484,0.1165945799939116,-0.01197771186076158,0.7556279626110122,0.1916418224573135,-0.9711040258407593,-0.1422339677810669,-3.071250915527344,-48.29371643066406,11.5235595703125,2
1596229547.029068,94,0,101879.2149057917,-0.788257990730956,0.9439485003924931,1.335774172953652,0.1368117779493332,0.09917933493852615,0.1737787276506424,-0.0467795729637146,-0.08001822233200073,0.03195846080780029,2,0.6463998923082241,0.1177654660516251,-0.008545250174769592,0.7538072523389991,0.1885922253131866,-0.9725092053413391,-0.1365969479084015,-3.313728332519531,-48.052734375,11.68228149414062,2
1596229547.055132,95,0,101879.2450007917,-0.8038955049804495,0.9625838237591494,1.333987128933257,0.03673949837684631,0.2352724671363831,-0.4157457649707794,-0.1614885628223419,0.06891179084777832,0.04923111200332642,2,0.6469349556314552,0.1202048023574397,-0.008897738789347076,0.7529586895101532,0.192531019449234,-0.9720914959907532,-0.1340519338846207,-3.249397277832031,-48.20951080322266,12.04275512695312,2
1596229547.08962,96,0,101879.2750947917,-0.8391786045481374,1.005882007891257,1.325600966436112,0.08741798996925354,0.2434583455324173,-0.1882026344537735,0.05390241742134094,0.0168192982673645,-0.07000422477722168,2,0.6471502569909516,0.1273586851804457,-0.01050177747602876,0.75157577023549,0.2050318568944931,-0.9700899124145508,-0.1299526244401932,-3.057151794433594,-48.3480224609375,12.01824951171875,2
1596229547.122455,97,0,101879.3051897917,-0.8479382692677618,1.014779659013181,1.326421012497082,0.05657146126031876,-0.1538685709238052,-0.03196268156170845,-0.03341391682624817,-0.02724504470825195,-0.04727435111999512,2,0.647963823244923,0.1276372367318187,-0.01067792260870581,0.7508246782515721,0.2055041939020157,-0.9702886343002319,-0.1277032345533371,-2.779449462890625,-48.29437255859375,12.10113525390625,2
1596229547.157647,98,0,101879.3352847917,-0.8640328944270511,1.027401930135524,1.319264361136032,-0.08355389535427094,0.02522097900509834,-0.410603404045105,0.09994345903396606,0.04401904344558716,0.08758717775344849,2,0.6472815133001795,0.1291646926234512,-0.01468514503124035,0.7510842307553723,0.2130379676818848,-0.9685322642326355,-0.128686249256134,-2.547218322753906,-48.26227569580078,12.005126953125,2
1596229547.210167,99,0,101879.3954737917,-0.8423013343813911,0.990830935874062,1.31326746753139,-0.2002432197332382,-0.4178281128406525,-0.08375129848718643,-0.05478799343109131,0.03383725881576538,-0.004106760025024414,2,0.6440643900381592,0.1240809838093962,-0.02001991222294452,0.7545755555722855,0.2130451798439026,-0.9670222997665405,-0.1395699381828308,-2.168296813964844,-48.4132080078125,11.7998046875,2
1596229547.225223,100,0,101879.4255687917,-0.8378113265496335,0.9776136691341162,1.303939293832315,-0.1831166297197342,-0.1096711531281471,-0.2329458892345428,-0.0009750127792358398,0.063720703125,0.04851478338241577,2,0.6412064074389272,0.1230835374726878,-0.02518678052878154,0.7570141281725383,0.2186518013477325,-0.9646044373512268,-0.1474095731973648,-1.769187927246094,-48.52754974365234,11.54513549804688,2
1596229547.269778,101,0,101879.4556637917,-0.8354954637747741,0.9771839612099121,1.30105626108012,-0.04473959654569626,0.009015336632728577,0.05600861832499504,0.09717193245887756,-0.08077645301818848,0.03697192668914795,2,0.6402992022833689,0.1244489870411087,-0.02525297711577446,0.7575564734701836,0.2208931893110275,-0.9638401865959167,-0.1490587592124939,-1.50421142578125,-48.57718658447266,11.21878051757812,2
1596229547.292958,102,0,101879.4857587917,-0.8248438031313798,0.9620638699658597,1.299980046700094,-0.01851522177457809,-0.1989908516407013,-0.0409056656062603,0.05572721362113953,0.09297460317611694,-0.09942686557769775,2,0.6391614490286165,0.1224157056041769,-0.02635002272214926,0.7588099708326084,0.2194643467664719,-0.9635528326034546,-0.1529740691184998,-1.520637512207031,-48.44086456298828,11.19692993164062,2
1596229547.329835,103,0,101879.5158527917,-0.8269134535754474,0.9597138310100081,1.300242479253149,-0.04495483636856079,-0.139551192522049,0.09598042815923691,0.1187403500080109,-0.009692013263702393,0.002099573612213135,2,0.6393253779387926,0.1207919280693079,-0.02781416256179248,0.7588799898584728,0.2188977599143982,-0.963623046875,-0.1533447355031967,-1.455207824707031,-48.77153015136719,11.060302734375,2
1596229547.360897,104,0,101879.5459477917,-0.8034528541939593,0.9291122533749907,1.301813520521049,-0.1486056745052338,-0.3278333842754364,0.143422856926918,0.00335240364074707,-0.04689574241638184,-0.08919697999954224,2,0.6379315637048105,0.116237995158993,-0.02824369929509762,0.7607459423950017,0.2128902673721313,-0.9640417098999023,-0.1590640991926193,-1.570747375488281,-48.53777313232422,11.21371459960938,2
1596229547.393258,105,0,101879.5760427917,-0.7860036654147348,0.9038763654437219,1.299512979127601,-0.1946266293525696,-0.3137975633144379,-0.0210753045976162,-0.01692149043083191,0.06730437278747559,0.01649254560470581,2,0.6359254329756874,0.1127844027539928,-0.0302492267592997,0.7628654440223753,0.2105511575937271,-0.9634277820587158,-0.1657570451498032,-1.90386962890625,-48.7777099609375,10.87429809570312,2
1596229547.428452,106,0,101879.6061377917,-0.7682006737881663,0.8778664873817337,1.297475823683817,-0.1486641764640808,-0.2213771045207977,0.1611641347408295,0.1081820726394653,0.0212932825088501,-0.03706419467926025,2,0.633954911129314,0.109024379768421,-0.03224041685662787,0.7649675617021686,0.2076781690120697,-0.9628798961639404,-0.1724297106266022,-1.435157775878906,-48.498291015625,10.54962158203125,2
1596229547.461154,107,0,101879.666326625,-0.7034574464677188,0.8024659654048968,1.297643402955368,-0.2371087670326233,-0.3717565536499023,-0.003155827056616545,-0.02395272254943848,0.0186992883682251,-0.01898366212844849,2,0.6294157156698164,0.1004973288507523,-0.03116802118870127,0.7699122416950512,0.1939835250377655,-0.962925136089325,-0.1874722838401794,-1.901321411132812,-48.56523895263672,10.10848999023438,2
1596229547.510155,108,0,101879.696421625,-0.6910725315709378,0.7813752089418209,1.297425215560783,-0.05978970974683762,-0.1041812151670456,0.2443983852863312,-0.1346610486507416,-0.01840859651565552,-0.02274090051651001,2,0.6284010690438482,0.09631715783015934,-0.03308056088917249,0.7711943369862072,0.1901342123746872,-0.9628662467002869,-0.1916702091693878,-1.87939453125,-48.75208282470703,9.826904296875,2
1596229547.528981,109,0,101879.726516625,-0.6597746786256291,0.7488303900338027,1.288225674660508,-0.1147738844156265,-0.1759032905101776,-0.5350766181945801,-0.1902807354927063,-0.002579867839813232,0.03953671455383301,2,0.6234871363780353,0.09563488944089035,-0.03331105644176213,0.7752471473785643,0.1898193806409836,-0.9603418707847595,-0.2042355239391327,-2.026832580566406,-48.75440216064453,9.5546875,2
1596229547.572254,110,0,101879.756610625,-0.7378443354176684,0.8208580399575305,1.276153634738326,0.08519497513771057,-0.1889052391052246,-0.7583057284355164,0.008744716644287109,0.1708337664604187,-0.05594539642333984,2,0.6250079684424266,0.1019728070023831,-0.04392575349403222,0.7726816924220453,0.2124929279088974,-0.9569059610366821,-0.197933167219162,-0.9252090454101562,-48.73883056640625,9.649383544921875,2
1596229547.596482,111,0,101879.786705625,-0.7707606788963821,0.8411729484502808,1.267652048731575,0.11002317070961,-0.4124891459941864,-0.1644403636455536,0.09014612436294556,-0.03859686851501465,-0.1002370715141296,2,0.6246391450771244,0.1016369489930967,-0.05242895085617416,0.7724940193961872,0.2225262224674225,-0.9544025659561157,-0.1989917308092117,-0.2843246459960938,-48.83970642089844,9.58734130859375,2
1596229547.631349,112,0,101879.816800625,-0.7740317325295281,0.8323612740342295,1.266546149162819,-0.0680527463555336,-0.3042998909950256,0.01642978377640247,-0.02998343110084534,0.008431553840637207,0.02045774459838867,2,0.6242344220976971,0.09748751401572017,-0.05672440204993434,0.7730522850537823,0.2215445339679718,-0.9540718793869019,-0.2016551345586777,0.2422027587890625,-48.6134033203125,9.734375,2
1596229547.66437,113,0,101879.846895625,-0.7725601808595479,0.8287506281016248,1.267712815855245,0.08305506408214569,0.1035962104797363,0.08794513344764709,-0.05110287666320801,0.03458738327026367,0.009579837322235107,2,0.6244062059364212,0.09626014186877913,-0.05698802837390937,0.7730480985841941,0.2199947983026505,-0.9544206857681274,-0.201701745390892,-0.00160980224609375,-48.64821624755859,9.82794189453125,2
1596229547.699169,114,0,101879.876989625,-0.7684897902631272,0.8272162987940828,1.271336937035925,0.02041651681065559,0.1001228392124176,0.1149287819862366,-0.02084839344024658,0.01016408205032349,-0.002111196517944336,2,0.6252432158310737,0.09603622466538947,-0.05498082148285288,0.7725444973675375,0.2171372920274734,-0.9554961323738098,-0.1996959298849106,0.011993408203125,-48.73751068115234,9.557037353515625,2
1596229547.753089,115,0,101879.937179625,-0.749721208193352,0.8116876802251084,1.27579466572313,-0.06623063236474991,-0.1334711164236069,0.05754013359546661,0.01400265097618103,0.003643810749053955,-0.04836821556091309,2,0.6252656762101696,0.0948045803602626,-0.05147037749416949,0.7729201771613694,0.2109180688858032,-0.9568016529083252,-0.2001098543405533,-0.09159088134765625,-48.87735748291016,9.611114501953125,2
1596229547.767065,116,0,101879.967274625,-0.7467938825517311,0.8062411856245097,1.274542643553316,-0.02428163029253483,-0.04310872033238411,-0.06682863086462021,-0.02315002679824829,0.03234219551086426,0.00662696361541748,2,0.6246091884827446,0.09391925686220631,-0.05235011358444919,0.7734998781411652,0.2106897979974747,-0.9564368724822998,-0.2020850628614426,-0.29998779296875,-48.83917236328125,9.587249755859375,2
1596229547.811945,117,0,101879.997368625,-0.751071550843185,0.8092061366676299,1.272802732321096,-0.01826544851064682,-0.05554014444351196,-0.0398225337266922,0.03998014330863953,0.0115322470664978,-0.04251116514205933,2,0.6243644897596374,0.09415485016715816,-0.05350867580948704,0.7735895600433543,0.2124922573566437,-0.9559274911880493,-0.2026076912879944,-0.23974609375,-48.85582733154297,9.427825927734375,2
1596229547.834515,118,0,101880.027463625,-0.748036903450884,0.8042204713191768,1.271836800609099,-0.03670191019773483,-0.0720270499587059,0.03334139287471771,0.03573977947235107,0.01611220836639404,0.01467394828796387,2,0.6237968409438953,0.09340826259957893,-0.05412866669445554,0.7740946402951693,0.2121442556381226,-0.9556434750556946,-0.2043047994375229,-0.0972442626953125,-48.82717132568359,9.51361083984375,2
1596229547.871096,119,0,101880.057558625,-0.7413270270726044,0.7974089969990409,1.273844214296707,0.01063312310725451,0.04256421700119972,0.1353203952312469,0.07281744480133057,0.02143961191177368,0.02159571647644043,2,0.6239103248343136,0.09237769376234259,-0.05316320201850316,0.7741937520995588,0.2093746066093445,-0.9562327861785889,-0.2044045329093933,-0.296600341796875,-48.89458465576172,9.55224609375,2
1596229547.902339,120,0,101880.087653625,-0.7311716800854197,0.7887809226365311,1.276717310057758,-0.01645770110189915,0.0389283150434494,0.1319625824689865,0.01303586363792419,0.004266619682312012,-0.001569747924804688,2,0.6240929010429395,0.09151467402175054,-0.05122392559020811,0.7742797451503585,0.2056528925895691,-0.9570695161819458,-0.2042662352323532,-0.5878448486328125,-48.89320373535156,9.447540283203125,2
1596229547.934984,121,0,101880.117747625,-0.7218871977715312,0.7809027376987919,1.278225243570985,-0.02799369022250175,-0.01561781018972397,0.05912249907851219,-0.04418817162513733,-0.001883804798126221,-0.001491844654083252,2,0.6239321488014494,0.09100154893182164,-0.04972295105863916,0.7745675832855113,0.2030211985111237,-0.9575055241584778,-0.2048547863960266,-0.6015548706054688,-48.70086669921875,9.534393310546875,2
1596229547.972304,122,0,101880.147842625,-0.7219118867283634,0.7803321654203706,1.278173962009342,0.02555574849247932,-0.01267201267182827,-0.03213094547390938,-0.02399405837059021,0.02539908885955811,-0.06318247318267822,2,0.6239030939065863,0.09078518062736887,-0.04992299802034217,0.7746036658013626,0.2029392868280411,-0.9574906826019287,-0.2050059586763382,-0.6030426025390625,-48.71163940429688,9.478851318359375,2
1596229548.003032,123,0,101880.208032625,-0.7279888390634964,0.7823553395025643,1.278838134878233,0.05152355507016182,-0.143641859292984,0.01180387567728758,-0.01941221952438354,0.03754091262817383,-0.004898309707641602,2,0.6244321372210478,0.08951400583241978,-0.05148464674053482,0.7742228703787836,0.2029049098491669,-0.9576820731163025,-0.2041434943675995,-0.7385330200195312,-48.92085266113281,9.430633544921875,2
1596229548.052674,124,0,101880.238126625,-0.7327960039416853,0.7820767602907145,1.281144988261521,0.1684837341308594,-0.1415904313325882,0.02573615498840809,-0.01055935025215149,0.01761174201965332,-0.02318346500396729,2,0.6253423820308314,0.08735362664554017,-0.05287517929572394,0.7736411467812687,0.2012909054756165,-0.958343505859375,-0.2026325017213821,-0.7541885375976562,-48.85002899169922,9.77349853515625,2
1596229548.070455,125,0,101880.268221625,-0.740177607250742,0.786926898732573,1.285371408227625,0.05883689224720001,0.02061120048165321,0.1206456422805786,-0.005866855382919312,0.01209670305252075,0.02417963743209839,2,0.6270763430687498,0.08590268111090105,-0.05318497615136142,0.7723776951585805,0.1994007080793381,-0.9595420956611633,-0.1987919807434082,-0.8878021240234375,-48.86078643798828,9.927764892578125,2
1596229548.110783,126,0,101880.298316625,-0.7225878388859986,0.7725415439453378,1.288613157361769,-0.08510592579841614,0.1789215505123138,0.2119116634130478,-0.03327915072441101,-0.02548152208328247,0.0363273024559021,2,0.6269408441606719,0.08508609334340037,-0.05011811923112819,0.7727830593975087,0.1943483799695969,-0.9604498147964478,-0.1994110643863678,-0.7839126586914062,-48.62071990966797,10.00390625,2
1596229548.138203,127,0,101880.328411625,-0.7021879308440032,0.761994141795837,1.290460938576695,-0.06532393395900726,0.4131552875041962,0.1392467617988586,-0.05371427536010742,0.03135859966278076,0.007276058197021484,2,0.6263815388663879,0.08696755798242345,-0.045099169477748,0.7733361912757041,0.1910088956356049,-0.96096271276474,-0.2001656293869019,-1.295677185058594,-48.74970245361328,9.82562255859375,2
1596229548.173124,128,0,101880.358505625,-0.6999728603063046,0.7703631304679073,1.292698229169672,0.09122443944215775,0.2005364596843719,0.04547755047678947,0.04009127616882324,0.0181586742401123,-0.03418320417404175,2,0.6271553307093337,0.09037529603908692,-0.04109245356428387,0.7725412980974501,0.1911800056695938,-0.9615793228149414,-0.1970169991254807,-1.565254211425781,-48.70166778564453,9.74188232421875,2
1596229548.205968,129,0,101880.388600625,-0.6923143605140792,0.7639101828488152,1.295800891973963,0.001197636127471924,-0.08860670775175095,0.1364141851663589,0.07631298899650574,-0.01011168956756592,-0.03504592180252075,2,0.6276406807823517,0.08956485564474709,-0.03942746588074653,0.7723280991364607,0.1878394782543182,-0.9624264240264893,-0.1960906237363815,-1.813438415527344,-48.91321563720703,9.85491943359375,2
1596229548.240898,130,0,101880.418695625,-0.6833651127810523,0.7537754201893752,1.298444369745333,-0.02338636294007301,0.02229516580700874,0.1053323969244957,0.004067003726959229,0.01705533266067505,0.0361141562461853,2,0.6278676721390772,0.08785166730011698,-0.03853515174739064,0.7723853991183481,0.1841006428003311,-0.9631409049034119,-0.1961285471916199,-1.811744689941406,-48.74460601806641,9.762237548828125,2
1596229548.291015,131,0,101880.478884625,-0.6904405569780246,0.7642943896227092,1.29856144759326,0.0522368811070919,0.0128632104024291,-0.002278896048665047,0.06067490577697754,0.01296710968017578,-0.007429838180541992,2,0.6284190723189975,0.08966328849744162,-0.03793553759963236,0.7717582663282289,0.1860755980014801,-0.9631723761558533,-0.1940999329090118,-1.867088317871094,-48.57585144042969,9.77471923828125,2
1596229548.308706,132,0,101880.508979625,-0.6881427849778573,0.7610138932907449,1.299048352486301,-0.05492544919252396,-0.07471306622028351,0.001388192642480135,-0.008556902408599854,-0.003547251224517822,0.02291804552078247,2,0.6284050897958184,0.08900692848070285,-0.03796547410706508,0.771844134281114,0.1851143389940262,-0.9633032083511353,-0.1943696141242981,-2.049583435058594,-48.65763854980469,9.970367431640625,2
1596229548.34779,133,0,101880.539074625,-0.6861060144083836,0.7583394091125055,1.298258557675553,0.01839143037796021,0.03918283805251122,0.01530491560697556,0.0185399055480957,0.01514327526092529,-0.0194629430770874,2,0.6280183361713536,0.08879612602100878,-0.03820389782315148,0.7721714090240359,0.1851171553134918,-0.9630908966064453,-0.1954164355993271,-2.202438354492188,-48.79524993896484,9.8563232421875,2
1596229548.376415,134,0,101880.569169625,-0.684266338259662,0.7576938632303047,1.299836524848953,0.004641057457774878,-0.02369258366525173,0.08188586682081223,0.02720284461975098,0.01815122365951538,-0.04051047563552856,2,0.6284148561203124,0.08876248378289248,-0.03732872991571518,0.7718955203317716,0.1839465796947479,-0.9635144472122192,-0.1944319754838943,-2.15655517578125,-48.64812469482422,9.64447021484375,2
1596229548.409852,135,0,101880.599263625,-0.6756509596737775,0.748295503921277,1.301396929291902,-0.001513793133199215,-0.008745903149247169,0.08775555342435837,-0.01537162065505981,0.01933598518371582,-0.02088695764541626,2,0.6283481237664811,0.08748518170508504,-0.03659423449803934,0.7721307599267099,0.1810878366231918,-0.9639309048652649,-0.1950499564409256,-2.183448791503906,-48.60387420654297,9.774932861328125,2
1596229548.444058,136,0,101880.629358625,-0.6712180968050707,0.7448910493432114,1.302703742933586,0.01200619526207447,0.01359758712351322,0.03554681316018105,0.007178843021392822,0.0187264084815979,-0.001975774765014648,2,0.6285019514808927,0.0872676176121229,-0.03565199962587451,0.7720743257407641,0.1795688718557358,-0.9642779231071472,-0.1947393268346786,-2.304023742675781,-48.64887237548828,9.875732421875,2
1596229548.476846,137,0,101880.6594532917,-0.6747822137681923,0.7467916257168337,1.303494255996406,0.06309392303228378,-0.0860334113240242,-0.0315886065363884,-0.02524831891059875,0.01840424537658691,-0.02267986536026001,2,0.6289387011267902,0.08670158286770357,-0.03624823567787977,0.7717545188015044,0.1794205158948898,-0.9644870162010193,-0.193837895989418,-2.134483337402344,-48.56636047363281,10.04345703125,2
1596229548.528856,138,0,101880.6895482917,-0.6793745733685124,0.7495261305304466,1.303956945669668,0.004869168624281883,-0.01787613518536091,-0.01093766745179892,-0.008005201816558838,0.004581212997436523,0.02892053127288818,2,0.6293317970061791,0.08620670339459333,-0.03705298857757539,0.7714512076069016,0.1796457767486572,-0.9646091461181641,-0.1930197924375534,-2.054718017578125,-48.61750030517578,9.96063232421875,2
1596229548.544441,139,0,101880.7497372917,-0.6741791987766093,0.7441783624606899,1.303984250818683,-0.01006796397268772,-0.01460365392267704,0.0002789860591292381,-0.02596625685691833,0.02291429042816162,-0.04488134384155273,2,0.6290183599017102,0.08577167025125687,-0.03672459488812835,0.7717709360565881,0.1785930544137955,-0.9646162986755371,-0.1939582526683807,-2.284393310546875,-48.59619903564453,10.05386352539062,2
1596229548.587995,140,0,101880.7798322917,-0.6722780169089112,0.7432075566704576,1.304160076312393,-0.002347037196159363,0.06259027868509293,0.05052595585584641,0.02529022097587585,-0.001025259494781494,-0.008593082427978516,2,0.6289741731534214,0.08595509804698759,-0.03625579795430139,0.7718086391735539,0.1782896965742111,-0.9646626710891724,-0.1940064281225204,-2.326705932617188,-48.66127014160156,10.19775390625,2
1596229548.612045,141,0,101880.8099272917,-0.6682382827060752,0.7396354097095181,1.305210194557419,0.004698469769209623,-0.07447685301303864,0.01926594413816929,0.0004704892635345459,0.009691476821899414,-0.02642238140106201,2,0.6290658516371789,0.08561029733790912,-0.03558001386575382,0.771803818512027,0.1769130527973175,-0.9649388194084167,-0.1938940584659576,-2.356788635253906,-48.68158721923828,10.1998291015625,2
1596229548.647773,142,0,101880.8400212917,-0.6666979530078119,0.7365419463818652,1.305329490443813,-0.0007468359544873238,-0.004393158946186304,0.03757870197296143,0.02760094404220581,0.01539957523345947,-0.005264222621917725,2,0.6289823525885031,0.0848740644122874,-0.03593127799403684,0.771936915371211,0.1762351244688034,-0.9649701118469238,-0.1943551898002625,-2.436408996582031,-48.52025604248047,9.990234375,2
1596229548.679897,143,0,101880.8701162917,-0.6613856579007159,0.7320313725718541,1.306835179910805,-0.008708474226295948,0.007332842797040939,0.07704423367977142,0.02566075325012207,0.00189816951751709,0.01461565494537354,2,0.6291517022411461,0.08446687497686398,-0.03495754472081453,0.7718882194701512,0.1743851751089096,-0.9653640389442444,-0.194066971540451,-2.356094360351562,-48.48754119873047,9.962890625,2
1596229548.7148,144,0,101880.9002112917,-0.65543515771105,0.7254476957793717,1.306646986745677,-0.04756664112210274,-0.07928012311458588,-0.0123896636068821,-0.04396411776542664,0.01065266132354736,0.01666057109832764,2,0.6287269056655062,0.08383846482374116,-0.03477332638062891,0.7723111761628523,0.173224613070488,-0.9653149247169495,-0.1953471750020981,-2.418159484863281,-48.64604187011719,9.89288330078125,2
1596229548.747657,145,0,101880.9303062917,-0.659145924257033,0.7259219981148953,1.306253948544915,0.1909134984016418,-0.2587059736251831,0.007825147360563278,0.004255771636962891,0.02515155076980591,-0.02503633499145508,2,0.6287657429401603,0.08294219574680531,-0.03614553228388018,0.7723132547646047,0.1735688596963882,-0.9652122259140015,-0.1955484598875046,-2.563827514648438,-48.64479064941406,9.6783447265625,2
1596229548.783987,146,0,101880.9604002917,-0.6605131509857882,0.7286882302747497,1.311514255201275,-0.05108976364135742,0.1973486095666885,0.1562179625034332,0.06092369556427002,0.002163171768188477,0.04444265365600586,2,0.6305317178079546,0.08240853234703618,-0.03461527894888328,0.7709996624362644,0.1707259565591812,-0.9665743112564087,-0.1912771761417389,-2.455856323242188,-48.67390441894531,10.00253295898438,2
