loggingTime,loggingSample,identifierForVendor,motionTimestamp_sinceReboot,motionYaw,motionRoll,motionPitch,motionRotationRateX,motionRotationRateY,motionRotationRateZ,motionUserAccelerationX,motionUserAccelerationY,motionUserAccelerationZ,motionAttitudeReferenceFrame,motionQuaternionX,motionQuaternionY,motionQuaternionZ,motionQuaternionW,motionGravityX,motionGravityY,motionGravityZ,motionMagneticFieldX,motionMagneticFieldY,motionMagneticFieldZ,motionMagneticFieldCalibrationAccuracy
1596229561.341954,1,0,101893.53997375,-0.754633631569785,0.8558772737164865,1.208470187797748,0.07056058198213577,-0.07762737572193146,0.02916198223829269,-0.0593792200088501,0.01574802398681641,-0.06181585788726807,2,0.6063635826656104,0.1270520233369968,-0.05666360189056785,0.7829240832037391,0.2676616609096527,-0.9350748658180237,-0.2323619723320007,1.504219055175781,-49.01216125488281,7.63739013671875,2
1596229561.377201,2,0,101893.57006875,-0.7612188847828955,0.8649599872048592,1.208073961125851,0.1220940053462982,0.2185494601726532,-0.1043301522731781,-0.02256223559379578,0.03969895839691162,0.05691170692443848,2,0.6069213129091187,0.1287070859257965,-0.05658652414332549,0.7822270288966735,0.2700434625148773,-0.9349343180656433,-0.2301620095968246,1.616561889648438,-49.12832641601562,7.77618408203125,2
1596229561.409852,3,0,101893.60016275,-0.772443562340131,0.8807298541680255,1.209472521852036,0.1119682788848877,0.04624258354306221,0.01977864466607571,0.01079648733139038,-0.02519845962524414,-0.01480424404144287,2,0.6085143823687996,0.1311070749608903,-0.05582009180446068,0.7806442270148496,0.2726306319236755,-0.9354296326637268,-0.2250423580408096,1.621566772460938,-49.10641479492188,7.917449951171875,2
1596229561.444847,4,0,101893.63025775,-0.7778454460043072,0.8876715560699959,1.212239521513076,0.1015811562538147,0.1380585432052612,0.0195216853171587,0.009027987718582153,0.01965802907943726,-0.02747809886932373,2,0.6098862064748509,0.1314687251604666,-0.05509299852352229,0.7795636723978419,0.2721773982048035,-0.9364042282104492,-0.221509575843811,1.493743896484375,-49.15481567382812,8.25933837890625,2
1596229561.491312,5,0,101893.66035325,-0.7849958657892985,0.9006893414140894,1.214152167330777,0.09832096844911575,0.2306189984083176,-0.03235146403312683,-0.0298316478729248,0.02212142944335938,-0.002276718616485596,2,0.6112789180517895,0.1338676244989674,-0.05340212687649804,0.7781810654501331,0.2736336886882782,-0.9370737075805664,-0.216835081577301,1.514747619628906,-49.15438079833984,8.23065185546875,2
1596229561.512939,6,0,101893.69044725,-0.79680814855469,0.9192515215907727,1.210686572470372,-0.003637753427028656,0.3331926465034485,-0.3563621342182159,-0.06673523783683777,-0.01789790391921997,-0.01387453079223633,2,0.6115643929773594,0.1383674138205772,-0.05323975479592696,0.7771801789831146,0.2801918983459473,-0.9358581304550171,-0.2136868983507156,1.626502990722656,-49.06658172607422,8.3934326171875,2
1596229561.551523,7,0,101893.75063625,-0.8296363848755822,0.9740841385846385,1.198131405751951,0.07543882727622986,0.3715138137340546,0.1519224941730499,0.01896411180496216,0.05441820621490479,0.01309305429458618,2,0.6118181194991705,0.1529062494730842,-0.05262152166901513,0.7742927582685454,0.3011780083179474,-0.9313603639602661,-0.204596534371376,2.556625366210938,-48.79958343505859,8.429718017578125,2
1596229561.580297,8,0,101893.78073125,-0.8234165473774908,0.9797439602977438,1.20510570099598,0.0542130284011364,0.3446373045444489,0.1094378381967545,0.02136117219924927,0.02108001708984375,-0.01440531015396118,2,0.6134342829257818,0.1551334093996823,-0.04654653734051106,0.7729588095114739,0.2969299554824829,-0.9338769912719727,-0.1992640048265457,2.165962219238281,-48.68167114257812,8.75970458984375,2
1596229561.613594,9,0,101893.81082525,-0.8344695457793869,0.9945320023181086,1.202000146167986,0.03217078000307083,0.07006679475307465,-0.3076310455799103,-0.01867681741714478,-0.02443760633468628,-0.02667558193206787,2,0.6137825930181178,0.1582892826411772,-0.04714555374877816,0.7720056516373548,0.3022746741771698,-0.9327619671821594,-0.1964308619499207,2.070289611816406,-48.66450500488281,8.75653076171875,2
1596229561.64806,10,0,101893.84092025,-0.8462853606581755,1.00993757728985,1.198112309525008,0.1440803408622742,0.1042596325278282,-0.0488341748714447,-0.00449138879776001,-0.01446640491485596,-0.01803576946258545,2,0.6140248329081933,0.161660846888645,-0.0480713937495531,0.7710567066598306,0.3083334267139435,-0.9313533902168274,-0.193678542971611,2.260032653808594,-48.72616577148438,8.843170166015625,2
1596229561.680639,11,0,101893.87101425,-0.8584320222888771,1.026405269291003,1.199103949290393,0.1197737455368042,0.2336053252220154,-0.09558460116386414,0.04413020610809326,0.06054508686065674,-0.002695858478546143,2,0.6156760164808149,0.1639962321987045,-0.04740367121416855,0.7692861525408412,0.3106906712055206,-0.9317139983177185,-0.1880965530872345,2.354751586914062,-48.77750396728516,9.103851318359375,2
1596229561.733136,12,0,101893.90110925,-0.8825065399633756,1.056256372171076,1.199391974324014,0.3637312650680542,0.2495179772377014,-0.1393264830112457,0.062896728515625,0.1279727220535278,-0.1257901787757874,2,0.6184575783944616,0.1679474667729967,-0.04735197772282534,0.7661995853844975,0.3159329295158386,-0.9318186044692993,-0.1786077469587326,2.365287780761719,-48.85981750488281,9.301239013671875,2
1596229561.748329,13,0,101893.93120325,-0.9141621717593754,1.092610431354353,1.203292770287509,0.4610532820224762,0.2169123589992523,-0.003958006855100393,-0.02827095985412598,0.06011009216308594,-0.1423850059509277,2,0.6229975773442191,0.170902286252056,-0.04700912418326592,0.7618770602323524,0.3189862072467804,-0.9332271814346313,-0.1653328537940979,2.572349548339844,-48.64926910400391,9.817718505859375,2
1596229561.790642,14,0,101893.96129825,-0.9403659202872531,1.125221326600377,1.205795503021254,0.07396489381790161,0.2813962399959564,-0.1757950335741043,-0.2374336719512939,-0.04324477910995483,-0.05938327312469482,2,0.62663554619666,0.1743825641231118,-0.04602374468055009,0.7581559569209478,0.322098582983017,-0.9341234564781189,-0.1538372337818146,2.739356994628906,-48.52483367919922,10.49176025390625,2
1596229561.815898,15,0,101894.02148725,-0.9963420944299513,1.215082547176809,1.187624957930436,0.289738267660141,0.9381365776062012,-0.5226209759712219,0.04486396908760071,0.2596282958984375,0.06956005096435547,2,0.6296338800806531,0.1961131125948043,-0.04457276713802694,0.7504093092516498,0.3504592478275299,-0.9274836182594299,-0.1302016526460648,3.234733581542969,-48.51644897460938,11.17575073242188,2
1596229561.85405,16,0,101894.05158225,-1.035825266818174,1.274851244261296,1.186171383457314,0.5291833281517029,0.6206341981887817,0.2236647456884384,0.4059401154518127,0.2941265106201172,-0.06573241949081421,2,0.6345730067418123,0.2064050307541336,-0.04089863329615945,0.743667458858399,0.3588997423648834,-0.9269392490386963,-0.1094281226396561,3.499229431152344,-47.99161529541016,12.00830078125,2
1596229561.883934,17,0,101894.08167625,-1.074225617336056,1.320986474760077,1.208127174309025,0.6068844795227051,0.2550914287567139,0.6813375949859619,0.07019275426864624,-0.3347769975662231,0.05341643095016479,2,0.6437331251281816,0.2043390798710345,-0.03314880697837358,0.7367186600469504,0.3437587916851044,-0.9349532127380371,-0.08770640939474106,3.021339416503906,-47.93717193603516,12.54681396484375,2
1596229561.918729,18,0,101894.11177125,-1.090839369435396,1.354064427310207,1.213876162450308,0.1501723229885101,0.8917014598846436,-0.3986281752586365,-0.1527711153030396,-0.07791942358016968,0.1360886096954346,2,0.6470126310531957,0.2093045298473304,-0.02666070619729255,0.7327041990254244,0.3412162363529205,-0.9369773268699646,-0.07513254135847092,2.131889343261719,-48.0150146484375,13.52288818359375,2
1596229561.969234,19,0,101894.14186525,-1.121893282832803,1.413914388026591,1.207720488048154,0.4087225794792175,0.8314440250396729,0.1767031103372574,0.03248977661132812,0.2379987239837646,0.07319945096969604,2,0.6500070851715225,0.2230392775500506,-0.02066325477842429,0.7261661571589102,0.3507896661758423,-0.9348088502883911,-0.05548853799700737,2.193778991699219,-47.86465454101562,13.72830200195312,2
1596229561.986559,20,0,101894.17196025,-1.14450578046606,1.450281481824778,1.223049854002954,0.215470626950264,0.1577321738004684,0.4435640573501587,0.2311566472053528,-0.2207381725311279,-0.1048574447631836,2,0.6552915003541375,0.2238485653529434,-0.01172124921163636,0.721351204474932,0.3383085429668427,-0.9401430487632751,-0.04096973687410355,1.391899108886719,-47.71726226806641,14.51248168945312,2
1596229562.032032,21,0,101894.20205425,-1.153657913405038,1.449626033370145,1.226259064143725,0.06573532521724701,-0.638715922832489,-0.1899723559617996,0.02383273839950562,-0.06738239526748657,-0.1751169562339783,2,0.6567945696750177,0.2195623859449609,-0.01413072038718988,0.7212582451130091,0.3352843225002289,-0.9412318468093872,-0.04082650318741798,1.103523254394531,-47.51294708251953,14.48291015625,2
1596229562.054576,22,0,101894.26224325,-1.214976920983125,1.490743616659374,1.21900804584359,0.1087546423077583,-0.0874430239200592,-0.02457783184945583,-0.0351702868938446,0.0109671950340271,0.2034333944320679,2,0.6628354763774051,0.2164987168774753,-0.02511868066782263,0.7163424195268662,0.3434735238552094,-0.9387580156326294,-0.02755487337708473,1.749732971191406,-47.50042724609375,15.40008544921875,2
1596229562.089094,23,0,101894.29233825,-1.216695613777829,1.495088645154694,1.218899691073488,0.1718882620334625,0.2202602326869965,-0.06755634397268295,-0.2162078022956848,-0.02326560020446777,0.08516848087310791,2,0.6630609282866,0.2175206831277983,-0.0243315828991143,0.7158511955753322,0.3436915278434753,-0.9387206435203552,-0.02606991492211819,1.857383728027344,-47.32004547119141,15.621826171875,2
1596229562.121935,24,0,101894.32243225,-1.237726377435259,1.520659277781099,1.211775028094275,0.2470437288284302,0.1443976908922195,-0.38421231508255,0.01028168201446533,0.06543922424316406,-0.03427588939666748,2,0.6647514641430582,0.2220386376454525,-0.02584557437860158,0.7128367743541325,0.3509163856506348,-0.9362411499023438,-0.01760866865515709,1.821426391601562,-47.36665344238281,15.53948974609375,2
1596229562.154536,25,0,101894.35252725,-1.256167112668525,1.532138615559382,1.203639601799319,0.01012767013162374,-0.5339168906211853,-0.1194351017475128,0.1162765622138977,-0.05147188901901245,-0.01292943954467773,2,0.6659340299964482,0.2226999211555987,-0.03144586754084783,0.7112999858446517,0.3586946427822113,-0.9333517551422119,-0.01387322600930929,2.578369140625,-47.02363586425781,16.03359985351562,2
1596229562.189744,26,0,101894.38262125,-1.253594643283989,1.51803945728713,1.204088873172419,0.1192539557814598,-0.2514597475528717,0.1413759142160416,0.0549081563949585,0.1089699268341064,0.01228189468383789,2,0.6654727150621494,0.2183864378677277,-0.03506534989309201,0.7128981381655159,0.3580446243286133,-0.9335129261016846,-0.0189068578183651,2.583099365234375,-47.28350830078125,16.00503540039062,2
1596229562.22225,27,0,101894.41271625,-1.266221484875808,1.520860807752465,1.208045028399089,0.01840497180819511,-0.3428550064563751,-0.02498933300375938,-0.09013175964355469,-0.08294433355331421,-0.04581338167190552,2,0.667387483944183,0.213864146387484,-0.03723862189423782,0.7123688308599766,0.3544054925441742,-0.9349240660667419,-0.01771214604377747,2.52142333984375,-46.98789978027344,16.26492309570312,2
1596229562.271816,28,0,101894.44281025,-1.260041359383846,1.501495211556871,1.200705401321647,-0.110734298825264,-0.57355135679245,-0.3292570114135742,0.02402317523956299,0.02999162673950195,-0.06848740577697754,2,0.6654016909592055,0.2114651587196604,-0.04405364593288746,0.7145503964573393,0.3608317673206329,-0.932294487953186,-0.02504615299403667,2.66259765625,-47.09799957275391,16.183837890625,2
1596229562.290183,29,0,101894.47290525,-1.249568473824575,1.470524336244026,1.197553445479527,-0.1551046371459961,-0.7328000068664551,0.1742925941944122,0.1261035203933716,0.0507282018661499,-0.09009838104248047,2,0.6631476209658975,0.2049010046731835,-0.05168656288263729,0.7180384854348768,0.3628052473068237,-0.9311497807502747,-0.03650162369012833,3.28875732421875,-47.41525268554688,15.984619140625,2
1596229562.332179,30,0,101894.50299925,-1.231351425687309,1.428339669888986,1.201854226281968,-0.2740380167961121,-1.029899954795837,0.005186289548873901,0.1550663113594055,-0.08087033033370972,-0.04753983020782471,2,0.660790295613654,0.1943089384022319,-0.05760181143355508,0.7226910538837916,0.3569760918617249,-0.9327093958854675,-0.05120044201612473,3.751434326171875,-47.29579925537109,15.3668212890625,2
1596229562.357835,31,0,101894.56318925,-1.209080972962939,1.349416830679988,1.194167031462816,-0.01009397674351931,-0.7827759385108948,0.1875696182250977,0.08557868003845215,0.05041724443435669,0.09909385442733765,2,0.6548480969402527,0.1754859169790803,-0.07808776780536897,0.7309452623744197,0.3588124513626099,-0.9299096465110779,-0.08075732737779617,4.973793029785156,-47.41029357910156,14.6943359375,2
1596229562.392628,32,0,101894.59328325,-1.196684150967489,1.314347540441959,1.202027271610911,-0.1323695033788681,-0.6648107767105103,0.2396359890699387,-0.04209262132644653,-0.09364008903503418,0.1668097972869873,2,0.6537184164871042,0.1641233985265129,-0.08238029754194442,0.7341179416042322,0.3486788868904114,-0.9327717423439026,-0.09143148362636566,4.624946594238281,-47.43611907958984,14.53567504882812,2
1596229562.42553,33,0,101894.62337825,-1.192477621879142,1.298516199092635,1.202459403958877,0.0140436515212059,-0.08490002155303955,-0.0920359268784523,-0.09728676080703735,0.08594554662704468,0.1801248788833618,2,0.652787359562508,0.159539691340237,-0.08586163150144405,0.7355566193773455,0.3467997312545776,-0.9329274296760559,-0.09683150053024292,4.92205810546875,-47.57814025878906,14.30856323242188,2
1596229562.460468,34,0,101894.653472875,-1.179893038992697,1.293778401812383,1.204665104990504,-0.2866508066654205,0.493195652961731,0.3468433916568756,-0.05082026124000549,-0.04441696405410767,0.3598837852478027,2,0.6519697934075876,0.1611836134081581,-0.08204290889504368,0.7363587465810383,0.3443569242954254,-0.9337193965911865,-0.09791046380996704,5.028114318847656,-47.63836669921875,14.230224609375,2
1596229562.509708,35,0,101894.683567875,-1.140973924780051,1.275378645232604,1.211594911933007,-0.4153296947479248,0.5405668616294861,0.249304011464119,-0.01599773764610291,-0.06963580846786499,0.2658493518829346,2,0.6493554807324933,0.1648206641704957,-0.07138121971096612,0.7389696974515683,0.3362985253334045,-0.9361778497695923,-0.1023432165384293,4.12188720703125,-47.52433776855469,13.98809814453125,2
1596229562.528326,36,0,101894.713661875,-1.096690554496049,1.248769424323927,1.211396453143446,-0.6423621773719788,0.6221303343772888,0.08817861974239349,-0.1147370934486389,0.007014274597167969,0.1529757380485535,2,0.6447189762674944,0.1693537997465692,-0.06365134265616018,0.7427013108889899,0.3336330354213715,-0.9361080527305603,-0.1113134622573853,3.770095825195312,-47.81685638427734,13.46075439453125,2
1596229562.572069,37,0,101894.743756875,-1.040382005981415,1.22007927614843,1.20501553376124,-0.6706091165542603,0.8582764863967896,-0.03170628845691681,-0.07823669910430908,0.08370029926300049,0.05777060985565186,2,0.6376660075944318,0.1787120484921751,-0.05393411749021781,0.7473521520836215,0.3359055817127228,-0.9338447451591492,-0.1228881329298019,3.347885131835938,-48.02930450439453,12.37698364257812,2
1596229562.595986,38,0,101894.773850875,-0.9897931076480043,1.198322101347579,1.198551483307715,-0.7256436347961426,0.7162641286849976,0.05257150530815125,0.09494918584823608,0.009881138801574707,0.1270612478256226,2,0.6310758228421779,0.188581255818085,-0.04393802034107486,0.7511656815902006,0.3387679755687714,-0.931513249874115,-0.1323608309030533,3.1248779296875,-48.20542144775391,11.72528076171875,2
1596229562.631097,39,0,101894.834039875,-0.8233814480673981,1.034784347899656,1.162587827243798,-1.409062504768372,-0.5229114890098572,-0.4012411534786224,-0.133148580789566,-0.01460045576095581,0.1711788773536682,2,0.6027757426421744,0.1878669287317094,-0.04175778667467678,0.7743537170738127,0.3412920832633972,-0.9178334474563599,-0.2027348428964615,2.869453430175781,-48.77184295654297,9.062957763671875,2
1596229562.663637,40,0,101894.864134875,-0.7429570421093368,0.9620072414201339,1.12153609873647,-2.156347036361694,0.6323812007904053,-0.4408730268478394,0.207643449306488,-0.2062543034553528,0.3002090454101562,2,0.5815547919694852,0.1939374533637372,-0.04323867839041573,0.7888679125752904,0.3562733829021454,-0.9007686376571655,-0.248364582657814,3.8873291015625,-49.06645202636719,6.01800537109375,2
1596229562.696281,41,0,101894.894228875,-0.609209952517948,0.8723692432880529,1.074959407136596,-2.954958200454712,1.790533065795898,0.3273152112960815,-0.3359447717666626,-0.255901575088501,0.09840279817581177,2,0.5515191581665453,0.2070360159147498,-0.02716377374854412,0.8076043997499294,0.3643690645694733,-0.8795708417892456,-0.3059253990650177,3.880218505859375,-49.0968017578125,4.12060546875,2
1596229562.732071,42,0,101894.924323875,-0.4325414726293598,0.8574212563452684,0.9878554395435802,-4.853417873382568,6.302240371704102,-0.7572411894798279,-0.6293602585792542,-0.3590349555015564,0.04577749967575073,2,0.4996816924678374,0.2649594728092822,0.02064462826451396,0.8244322247564868,0.4162507653236389,-0.8348473310470581,-0.3602293729782104,3.808830261230469,-49.23933410644531,-2.040069580078125,2
1596229562.764279,43,0,101894.954417875,-0.2683304774971011,0.9443154623977321,0.8732124914634656,-5.162777423858643,8.695228576660156,-1.128407001495361,-1.238442778587341,-0.1517684459686279,0.5183936357498169,2,0.4283455288842452,0.3580652298141606,0.08264229315027327,0.8255179267680797,0.5203796029090881,-0.7663964629173279,-0.3766188025474548,4.861732482910156,-48.67797088623047,-5.69482421875,2
1596229562.810869,44,0,101894.984512875,-0.1046049138137541,1.106856484821257,0.7566113694971403,-5.152848243713379,9.526189804077148,-1.438443660736084,-0.3190354108810425,0.1085586547851562,0.8450227975845337,2,0.3393186722014485,0.4713475324926432,0.152535475008457,0.7996418970605402,0.6503021717071533,-0.6864612698554993,-0.3253886699676514,10.38727569580078,-46.63109588623047,-12.35018920898438,2
1596229562.831725,45,0,101895.014606875,0.06793272761081354,1.280168301009659,0.665201024529981,-5.275146484375,9.295138359069824,-0.9354254603385925,0.4949480295181274,-0.00216299295425415,0.7573304176330566,2,0.2425471423248191,0.5730982492081604,0.2206397848941505,0.7510308253622634,0.7537978291511536,-0.6172173023223877,-0.225458562374115,17.75608825683594,-42.86775207519531,-15.66717529296875,2
1596229562.871236,46,0,101895.044701875,0.253281104720168,1.433443885966335,0.6162519415817526,-4.961496829986572,8.187433242797852,-0.1886696666479111,0.80034339427948,0.2015789151191711,0.529790997505188,2,0.1477633455212687,0.649845196373333,0.2883723459446038,0.6875380840707914,0.8083649277687073,-0.577980637550354,-0.111734427511692,21.51252746582031,-40.82892608642578,-16.24258422851562,2
1596229562.899384,47,0,101895.104890875,0.5493975564886258,1.655745145786568,0.6291727969309046,-2.690451145172119,4.385371208190918,0.8762019276618958,0.4869529008865356,0.7311808466911316,-0.2229923009872437,2,0.01148504632571973,0.7308679672579814,0.3938294145507291,0.5573136553799601,0.8055990934371948,-0.5884761810302734,0.06859978288412094,28.32086181640625,-36.64011383056641,-15.50521850585938,2
1596229562.934346,48,0,101895.134984875,0.5877484177575325,1.693214527611256,0.6776320561000049,0.9747426509857178,-0.8585301041603088,1.778146982192993,1.68952214717865,2.09731388092041,-0.3725430965423584,2,0.006131500957007763,0.7399519779563296,0.419284073878194,0.525960507428079,0.7732293605804443,-0.6269500255584717,0.09513305127620697,28.71754455566406,-36.84609222412109,-14.45761108398438,2
1596229562.96723,49,0,101895.165079875,0.4737077708290111,1.662811356559488,0.684995543275602,3.324557065963745,-5.153282642364502,-0.7251173853874207,1.272611618041992,0.8724274635314941,-0.03422415256500244,2,0.05667921434002948,0.7296344516846377,0.390147487111403,0.5587539030491898,0.7711457014083862,-0.6326695680618286,0.07115793228149414,27.19898986816406,-37.92047882080078,-14.1151123046875,2
1596229563.002721,50,0,101895.195173875,0.4135431092378087,1.531325852736349,0.6628859205601964,-0.06398177146911621,-5.171877384185791,0.2231564223766327,0.1609467267990112,-0.4133879542350769,0.8235154151916504,2,0.09506358605369486,0.6895007257718904,0.3606598030287919,0.6208673765663787,0.7876057624816895,-0.6153941750526428,-0.03110332787036896,25.04347229003906,-38.89300537109375,-15.91204833984375,2
1596229563.050227,51,0,101895.225268875,0.4248472038115612,1.438058549393927,0.6993878475887082,0.07133918255567551,-0.529009222984314,1.809346675872803,-0.4909929037094116,-0.5771453976631165,0.4254138469696045,2,0.1215414745454461,0.6592334932301194,0.3696262792685531,0.6434401121713259,0.7585046887397766,-0.6437493562698364,-0.1012777462601662,22.99292755126953,-39.17439270019531,-18.0164794921875,2
1596229563.069909,52,0,101895.255362875,0.4374080185758831,1.465304856212488,0.7423740001221237,-0.1699554622173309,2.469874858856201,0.7575346231460571,-0.9774587154388428,0.1109995245933533,0.2921876907348633,2,0.1279925733048178,0.666950839877841,0.3871330705576411,0.6236365013272537,0.7327694892883301,-0.6760391592979431,-0.07758895307779312,20.57752990722656,-40.23661804199219,-18.47052001953125,2
1596229563.110662,53,0,101895.285457875,0.4259153789047703,1.54470405830668,0.7391853942940618,0.6580477356910706,2.128010034561157,-0.8430641889572144,-0.8402397632598877,-0.04481172561645508,0.1505696177482605,2,0.1153709771662443,0.6906875633829497,0.3875465553799729,0.5995396702120289,0.7387659549713135,-0.673686146736145,-0.0192804541438818,20.98342895507812,-40.49514007568359,-17.52020263671875,2
1596229563.137632,54,0,101895.315551875,0.4092316266787238,1.616453922988954,0.7094737780481736,-0.05848819762468338,1.721514225006104,-0.7305335402488708,0.1906964778900146,-0.5174322724342346,0.06773102283477783,2,0.09716081493262391,0.7126528474235876,0.3775336968066013,0.5832273337112381,0.7579143047332764,-0.651434600353241,0.03462861105799675,23.69129943847656,-40.26922607421875,-14.79122924804688,2
1596229563.170224,55,0,101895.375740875,0.4414625802850469,1.644916459973353,0.7438683406634912,-0.2827920913696289,0.4368577599525452,0.9007489085197449,-0.004813551902770996,0.1475914716720581,-0.1048011779785156,2,0.09180218428520887,0.7202903675963972,0.3986465556467602,0.5602097597532485,0.7338341474533081,-0.6771395206451416,0.05449170991778374,23.73416137695312,-40.19682312011719,-14.14129638671875,2
1596229563.205402,56,0,101895.405835875,0.4459536993901775,1.658141666741589,0.7564295153742933,0.04576882347464561,0.73671555519104,-0.1032901778817177,-0.2092718482017517,0.3050965070724487,0.02669072151184082,2,0.09176349359885455,0.7233960408352949,0.4043495136056233,0.5520679574549716,0.7245184779167175,-0.6863290667533875,0.06344474107027054,23.46927642822266,-40.55860137939453,-14.363037109375,2
1596229563.238442,57,0,101895.435929875,0.4417374458274728,1.681967821695747,0.7474821971281792,0.08659927546977997,0.4432669281959534,-0.240235298871994,0.1144843101501465,0.1937079429626465,0.05562078952789307,2,0.08550347832858152,0.730323206093728,0.4014813996014461,0.5460127997480305,0.7288755178451538,-0.6797943711280823,0.08136565983295441,23.6761474609375,-40.53702545166016,-13.58517456054688,2
1596229563.291613,58,0,101895.466024875,0.4472488493529529,1.680997777081143,0.7521549789291655,-0.2931559085845947,-0.04720540717244148,0.5004200339317322,0.1865206956863403,-0.003403604030609131,0.07723021507263184,2,0.08524156208192835,0.7299918037343069,0.4043968058595873,0.5443426916498798,0.7257885932922363,-0.6832139492034912,0.08030831813812256,23.62716674804688,-40.62413024902344,-13.58859252929688,2
1596229563.305824,59,0,101895.496118875,0.4498704078631657,1.682092584703151,0.7668078198000886,0.05366316437721252,0.2265649735927582,0.2423801273107529,-0.1341472268104553,-0.01244246959686279,0.05499303340911865,2,0.08893650135697495,0.7294391393990465,0.4096960924941792,0.5405163446301356,0.7156736850738525,-0.693839967250824,0.07998231798410416,23.35017395019531,-40.83692169189453,-13.67105102539062,2
1596229563.352571,60,0,101895.526213875,0.4500204474130811,1.685127270867769,0.7655138053084855,-0.03785044699907303,-0.07873085141181946,-0.1322122514247894,0.08213293552398682,0.06870496273040771,-0.08830225467681885,2,0.08783038356907164,0.7303519075030724,0.4094703058149924,0.5396351213022538,0.71631920337677,-0.6929075717926025,0.08225616812705994,23.45182800292969,-40.84829711914062,-13.61593627929688,2
1596229563.373485,61,0,101895.556307875,0.4474749051575717,1.675113964004835,0.7708533972053792,0.07011143863201141,-0.7018876671791077,0.5285769104957581,0.2757781744003296,-0.08019036054611206,-0.2817187309265137,2,0.09258568162859915,0.7271687900989834,0.4099783807814912,0.5427441911754336,0.7134169936180115,-0.6967476606369019,0.07469311356544495,23.29167938232422,-40.95169067382812,-13.6531982421875,2
1596229563.41304,62,0,101895.586402875,0.4462725485651787,1.65253861720503,0.7892355353700211,-0.1283543705940247,-0.688840389251709,0.5199766159057617,-0.01212823390960693,-0.1340115666389465,-0.05178749561309814,2,0.1038269800184685,0.7197062229432084,0.4141485903827924,0.5474702461262319,0.7020359039306641,-0.7098150253295898,0.05751417949795723,22.02558898925781,-41.33613586425781,-14.23150634765625,2
1596229563.441093,63,0,101895.64659125,0.4459554788752,1.626353576594597,0.8053765547204257,0.2579240798950195,-0.4628980457782745,0.2468692064285278,-0.124941349029541,0.08127182722091675,0.08248269557952881,2,0.1148410402670458,0.7113703516318561,0.417458801558295,0.553617230335805,0.6917709708213806,-0.7210915684700012,0.0384724847972393,20.72296905517578,-41.87820434570312,-14.94970703125,2
1596229563.476105,64,0,101895.67668525,0.4360103750697867,1.613492610711357,0.8108608607844809,0.2049194574356079,-0.8448792695999146,0.1758120357990265,0.1494119167327881,-0.01602417230606079,-0.08154559135437012,2,0.1229126472126273,0.7068197869231719,0.4155470717067037,0.5591234337446488,0.68824702501297,-0.7248804569244385,0.02940345928072929,20.54910278320312,-41.7564697265625,-14.83990478515625,2
1596229563.509066,65,0,101895.70678025,0.4249710857332155,1.587173625672629,0.8194535041033915,0.2108340859413147,-1.490648627281189,0.3971942365169525,0.1468897461891174,-0.09499895572662354,-0.1927638053894043,2,0.1351886404371742,0.6980784496542151,0.4132469596291172,0.5688913475720724,0.6825289726257324,-0.7307729125022888,0.01117898058146238,19.54879760742188,-42.15247344970703,-15.5389404296875,2
1596229563.543931,66,0,101895.73687425,0.4184951074671205,1.547539064777843,0.8318665440636693,0.1508489698171616,-1.356273770332336,0.3723374009132385,-0.1353235244750977,-0.112181544303894,0.2226026058197021,2,0.1499128984577897,0.6853429638206425,0.4121145476748252,0.5813714529238582,0.6733151078224182,-0.7391897439956665,-0.0156622901558876,18.75094604492188,-42.41071319580078,-15.65484619140625,2
1596229563.591775,67,0,101895.76696925,0.4089224118436505,1.515616762625319,0.8386199479576912,0.2907000780105591,-1.179362297058105,0.02197856828570366,-0.2468806505203247,-0.09066766500473022,0.314570426940918,2,0.1620912740790295,0.6747535032426,0.4087053544700998,0.5927849582625384,0.6674723029136658,-0.7437213063240051,-0.03686825931072235,17.28646087646484,-42.89023590087891,-16.24810791015625,2
1596229563.611905,68,0,101895.79706325,0.3943860722023523,1.494514843831689,0.8372187237054775,0.3582395017147064,-1.153273224830627,-0.0336003303527832,0.08956915140151978,-0.06363290548324585,0.2406109571456909,2,0.1707501109658182,0.6673325583101106,0.402216178668854,0.6031033876461001,0.6675841212272644,-0.7427838444709778,-0.05102331191301346,16.93417358398438,-42.84681701660156,-16.74533081054688,2
1596229563.654611,69,0,101895.82715825,0.3775142859572112,1.458354856136017,0.8427676872647267,0.3931178748607635,-1.904745697975159,0.2976621091365814,0.1835042238235474,-0.005085587501525879,0.07965648174285889,2,0.1855211694147934,0.6544092335385725,0.3953602447896741,0.6172686522861066,0.6611972451210022,-0.7464876174926758,-0.07466090470552444,15.79990386962891,-43.09767913818359,-17.15689086914062,2
1596229563.679338,70,0,101895.85725225,0.3607650408030664,1.414005366672772,0.8513495845517491,0.4826397597789764,-1.894385695457458,0.02852672524750233,-0.1703351736068726,0.009873449802398682,0.3274610638618469,2,0.2027309239318283,0.6383192056944734,0.3881052972478137,0.6331059135836982,0.6508854627609253,-0.7521704435348511,-0.1028975248336792,15.13485717773438,-43.43758392333984,-17.1778564453125,2
1596229563.712021,71,0,101895.91744125,0.2477785975188997,1.334507803416276,0.8093587715880105,1.649044394493103,-3.886613845825195,-1.361102342605591,0.2005618214607239,0.04379451274871826,0.08082854747772217,2,0.2366152636050705,0.6027059929571601,0.3310101960570285,0.6864334041155246,0.6707909107208252,-0.7238448858261108,-0.1615174114704132,13.85064697265625,-43.99240112304688,-17.13558959960938,2
1596229563.74705,72,0,101895.94753625,0.1500398014427534,1.26165791188178,0.7985338538730962,2.484745979309082,-5.796473979949951,-0.6196796894073486,0.7780110239982605,0.197163999080658,-0.1065759658813477,2,0.2723128064746236,0.5654233063504813,0.2844054737126972,0.724745348817322,0.6646813154220581,-0.7163338661193848,-0.2122844457626343,13.35670471191406,-44.44544982910156,-16.33721923828125,2
1596229563.779714,73,0,101895.97763025,0.02750135867154203,1.151488938798018,0.8093295117067579,3.069499254226685,-7.143150806427002,-0.7871071100234985,0.5779228210449219,0.3235137462615967,0.2023274898529053,2,0.3233263994793044,0.5049793794199033,0.2249411891087018,0.7680217074906694,0.6302114129066467,-0.7238247394561768,-0.2809117436408997,10.63695526123047,-45.66259002685547,-14.90829467773438,2
1596229563.833003,74,0,101896.00772525,-0.1185847459559196,1.040655165020451,0.8391147065526854,3.672040462493896,-7.316381931304932,-0.2678451538085938,0.2879999279975891,0.1595004200935364,0.5970931649208069,2,0.3797297868198672,0.4323028032020508,0.1552111851521943,0.803012415782826,0.5764124393463135,-0.7440519332885742,-0.3378391563892365,9.323959350585938,-46.52953338623047,-13.43719482421875,2
1596229563.847411,75,0,101896.03781925,-0.2419310505724612,0.9047747650740265,0.9077657227887956,3.10078763961792,-8.128039360046387,1.048765420913696,0.09953993558883667,0.1313801407814026,0.5869866609573364,2,0.4388768936996339,0.3423992668002415,0.09271253431390847,0.8255630393728179,0.4839655756950378,-0.788130521774292,-0.3802996277809143,5.428695678710938,-48.05173492431641,-9.44281005859375,2
1596229563.892123,76,0,101896.06791425,-0.2884599905385594,0.6875828567017526,0.9842607462002121,1.678715944290161,-8.336952209472656,1.210927128791809,0.209653377532959,0.2201796174049377,0.7153884172439575,2,0.4829327219599314,0.2300360275125216,0.03834706622156808,0.8440313795113747,0.3512771427631378,-0.8328631520271301,-0.4277188181877136,2.966415405273438,-48.83843231201172,-7.705108642578125,2
1596229563.91519,77,0,101896.09800825,-0.2572002248789762,0.4267454837891742,1.027804374418973,0.4097877442836761,-7.018391132354736,1.312166213989258,-0.3351169228553772,-0.01086145639419556,0.3362796902656555,2,0.5001133182297435,0.1212691683378744,-0.005912174892485356,0.8574061838133837,0.2138673812150955,-0.8561666011810303,-0.4703609049320221,-1.411323547363281,-49.10569763183594,-5.74951171875,2
1596229563.950626,78,0,101896.12810325,-0.2181962329509728,0.2553240852731397,1.057118089320695,1.206485509872437,-1.736415982246399,0.4283994138240814,-0.9948470592498779,0.2925631999969482,-0.1416221261024475,2,0.509182687790209,0.05482661610807824,-0.02943588347859505,0.8584057713646408,0.1241034492850304,-0.8709429502487183,-0.4754540622234344,-3.35150146484375,-49.28559875488281,-5.091064453125,2
1596229563.982718,79,0,101896.18829225,-0.2664936047999836,0.3397472438525433,1.126211615186713,0.7042862176895142,0.2394977509975433,-0.09360246360301971,-0.291316419839859,-0.01932913064956665,-0.05631780624389648,2,0.5404597154464742,0.07179022855113285,-0.02127788635333061,0.8380314151797483,0.143324613571167,-0.9027893543243408,-0.4054989218711853,-3.915885925292969,-49.39181518554688,-1.4110107421875,2
1596229564.017926,80,0,101896.21838625,-0.2717055148182392,0.3390413371903482,1.151959041569353,0.8409884572029114,-0.4265633225440979,0.5755211710929871,0.3008081018924713,-0.6219077110290527,0.08353239297866821,2,0.5510656372453269,0.06747812849551779,-0.02091357270765437,0.8314661518158588,0.135261058807373,-0.9135624170303345,-0.3835467398166656,-3.851165771484375,-49.69034576416016,0.195037841796875,2
1596229564.07403,81,0,101896.24848125,-0.2527505570624766,0.2922138774981775,1.177048415292303,0.8168017864227295,-1.291555881500244,0.1108073890209198,-0.476688414812088,-0.05210745334625244,0.2236995697021484,2,0.5601021171926701,0.05090527093323302,-0.02354130386632447,0.8265228599608576,0.1105198115110397,-0.9234776496887207,-0.3673885464668274,-4.300750732421875,-49.61824798583984,1.089141845703125,2
1596229564.085552,82,0,101896.27857525,-0.2956453307574954,0.3050126950233806,1.198189294747927,0.4237868785858154,-0.1770645081996918,-0.4015586674213409,-0.5874768495559692,-0.01976090669631958,-0.02434563636779785,2,0.5697499734134308,0.04200168283368882,-0.03549259929502008,0.8199762849654973,0.1093245819211006,-0.9313814640045166,-0.3472416400909424,-4.279998779296875,-49.48368835449219,2.831207275390625,2
1596229564.130308,83,0,101896.30867025,-0.317145138260604,0.3761867116647618,1.208881085818846,0.9340803027153015,3.445087432861328,-0.09953565150499344,-0.9367353320121765,-0.6759968400001526,0.0942767858505249,2,0.5755692884995899,0.06376861339178258,-0.02270756685285696,0.8149466071143721,0.1300755888223648,-0.9352204203605652,-0.3293071091175079,-4.073295593261719,-49.41812133789062,3.174407958984375,2
1596229564.153458,84,0,101896.33876425,-0.429195642510282,0.5896983932932361,1.237855064332177,1.497281312942505,3.345620632171631,-1.263262271881104,-0.2284306883811951,0.4925835728645325,-0.03626805543899536,2,0.5927964954921011,0.1130447424371664,-0.001241218077189299,0.7973780131432844,0.1817503571510315,-0.9450851678848267,-0.2716264128684998,-3.93389892578125,-49.09075927734375,4.77496337890625,2
1596229564.186222,85,0,101896.36885925,-0.5923040740523419,0.8142980942788489,1.239804096307627,1.138019680976868,1.260910034179688,-0.7896918654441833,0.9814666509628296,0.3091909289360046,-0.2510829567909241,2,0.6043052893469049,0.1525940521815159,0.001916963724638399,0.7820015269152888,0.2363407015800476,-0.945720374584198,-0.2230603396892548,-3.09466552734375,-49.17332458496094,5.7659912109375,2
1596229564.221123,86,0,101896.39895325,-0.6435592387183926,0.8684966200714079,1.265278606069524,0.6219109892845154,-0.6905239224433899,1.057796359062195,0.7042919397354126,-0.2458429336547852,-0.03281819820404053,2,0.6161729434450536,0.1522513493350803,0.00461999975159666,0.772741293236303,0.2296083718538284,-0.9536913633346558,-0.1943008601665497,-2.245567321777344,-48.80228424072266,7.75592041015625,2
1596229564.253539,87,0,101896.45914225,-0.6920749213779186,0.8990699997886236,1.310231117289734,0.5029450654983521,0.7345687747001648,-0.3025498390197754,-0.4261073470115662,-0.1037287712097168,0.3725956082344055,2,0.6330694716765484,0.1380488650004969,0.006819341663006795,0.7616555194971227,0.2016571313142776,-0.9662445187568665,-0.1603311151266098,-3.5447998046875,-48.56552886962891,9.924102783203125,2
1596229564.288671,88,0,101896.48923725,-0.7522371001908055,0.9868871228193333,1.308821010570308,0.3634327352046967,1.069357991218567,-0.3202071189880371,-0.1416323781013489,-0.1262686252593994,0.08015096187591553,2,0.636644215905123,0.1526275624455117,0.01149652527042988,0.7558153207193451,0.2160781025886536,-0.965880274772644,-0.1427779346704483,-3.550163269042969,-48.43467712402344,10.5787353515625,2
1596229564.32149,89,0,101896.51933125,-0.80283189967696,1.063673890108249,1.309217369163139,0.3114896714687347,0.7502865195274353,-0.08467961847782135,0.2642389237880707,0.06594336032867432,0.1799737215042114,2,0.6402228595564294,0.1652782073894743,0.01707167797237474,0.7500042269247358,0.2260593473911285,-0.9659828543663025,-0.1255956143140793,-3.663764953613281,-48.63258361816406,10.92825317382812,2
1596229564.368657,90,0,101896.54942625,-0.8137534152699321,1.086651040749683,1.313628013838212,-0.002269118092954159,0.0151146687567234,0.2897100746631622,0.3961956202983856,-0.05667406320571899,0.103406548500061,2,0.6420235451556976,0.1691556096335195,0.02162584609596635,0.7474786674399589,0.2251118123531342,-0.9671140909194946,-0.1183842942118645,-3.746383666992188,-48.44918060302734,11.15426635742188,2
1596229564.389167,91,0,101896.57952025,-0.776069966656765,1.039254527170428,1.324005806934398,-0.09331587702035904,-0.5960416793823242,0.4711038172245026,0.06324183940887451,-0.05911862850189209,-0.07948219776153564,2,0.6420869924338759,0.1606633601567288,0.02348863916633365,0.7492395517481486,0.2105871886014938,-0.9697014689445496,-0.1238231584429741,-4.137748718261719,-48.39846038818359,11.05404663085938,2
1596229564.431123,92,0,101896.60961525,-0.7605499319382278,1.011286668400159,1.327953166270406,-0.07161805033683777,-0.2407233417034149,-0.098949134349823,-0.1102362871170044,0.002107739448547363,-0.01046872138977051,2,0.6422132782270847,0.1540993032334073,0.02143229644291633,0.7505706062869099,0.2037966102361679,-0.9706582427024841,-0.1276310235261917,-4.500686645507812,-48.58882141113281,11.00634765625,2
1596229564.456977,93,0,101896.63970925,-0.758077112233807,1.001843730343488,1.324991265072239,-0.0009132670238614082,-0.3645731806755066,0.04877141490578651,-0.08930337429046631,0.05796134471893311,0.03541803359985352,2,0.6413317618879956,0.1521333752040446,0.01851221672943071,0.7518020649174876,0.2050034254789352,-0.9699417352676392,-0.1310980170965195,-4.245445251464844,-48.44692993164062,11.16073608398438,2
1596229564.491751,94,0,101896.669804125,-0.766388609218246,0.9996816827572829,1.328456100642177,0.09756519645452499,-0.4145130217075348,0.008162476122379303,-0.02509859204292297,0.03006243705749512,0.1350226402282715,2,0.642894849022666,0.1477317117016848,0.01565083041321097,0.7514096520999254,0.2018903940916061,-0.9707790613174438,-0.1297231018543243,-4.229537963867188,-48.31420135498047,11.13641357421875,2
1596229564.524628,95,0,101896.729993125,-0.7712382360688228,0.9849335330436518,1.321268950420811,-0.006617739796638489,0.09739185869693756,-0.2824379801750183,-0.08758670091629028,0.03031861782073975,0.07749325037002563,2,0.6414151980539328,0.1425346502783437,0.007111132141191856,0.7538035268858218,0.2057638615369797,-0.9690292477607727,-0.1365408301353455,-3.62701416015625,-48.35521697998047,11.20516967773438,2
1596229564.559551,96,0,101896.760087125,-0.7669513677472187,0.9871581818117714,1.312152693795675,-0.3842652440071106,0.2630644738674164,-0.08851810544729233,0.07822912931442261,-0.05969583988189697,0.2154097557067871,2,0.6386478597167706,0.1471608225676635,0.006936886220192562,0.7552644968693931,0.2134302407503128,-0.9667378067970276,-0.1409452110528946,-3.415916442871094,-48.41903686523438,11.107421875,2
1596229564.612215,97,0,101896.790182125,-0.7278702244867693,0.9508306536243726,1.307113154018487,-0.2933735847473145,-0.1435975879430771,0.0713011622428894,-0.01077312231063843,-0.01688611507415771,-0.0784066915512085,2,0.6345291065645284,0.1471614396809832,0.008803646762083006,0.7587086460333978,0.2121329754590988,-0.965436577796936,-0.1514326483011246,-3.456146240234375,-48.51021575927734,10.44882202148438,2
1596229564.627414,98,0,101896.820276125,-0.7120305875507908,0.9312390604259633,1.301389617379234,-0.1562599688768387,-0.1075048297643661,-0.1776311248540878,0.01914197206497192,0.1012304425239563,-0.1278318762779236,2,0.6318252685422793,0.146182940094735,0.007109362823685572,0.7611680703159461,0.2135558277368546,-0.9639289975166321,-0.158854752779007,-3.480003356933594,-48.57364654541016,10.23724365234375,2
1596229564.671884,99,0,101896.850371125,-0.7076112994046069,0.9275427250420804,1.295944240668547,-0.1551138013601303,0.1419985592365265,-0.03320997953414917,-0.007814526557922363,0.004914402961730957,-0.004491329193115234,2,0.6299515976565025,0.1475345346605417,0.006203955366524461,0.7624671172331077,0.2171640843153,-0.9624653458595276,-0.1627890914678574,-3.181961059570312,-48.59613800048828,9.925445556640625,2
1596229564.695047,100,0,101896.880465125,-0.6957585495615262,0.9173131978805845,1.294963422789389,-0.02676822617650032,-0.1522356420755386,0.09264767169952393,0.133277028799057,0.00621563196182251,-0.1802257299423218,2,0.6288278209939253,0.1476064059230124,0.007251615989370408,0.7633710606407663,0.216236874461174,-0.9621986746788025,-0.165575847029686,-3.172470092773438,-48.61002349853516,9.915771484375,2
1596229564.728595,101,0,101896.910560125,-0.6915111276958315,0.9046423458574778,1.298223656418016,0.09776052087545395,-0.3862660825252533,0.09506773948669434,0.1075559258460999,0.06556683778762817,-0.1895300149917603,2,0.6295103984350822,0.1433014902305674,0.005725189062444458,0.7636415869992521,0.2116538286209106,-0.9630814790725708,-0.1663626879453659,-3.530738830566406,-48.80978393554688,9.65753173828125,2
1596229564.762747,102,0,101896.940654125,-0.6940739627975061,0.8936137664598566,1.300147654980558,-0.0130320368334651,-0.4152402281761169,-0.02384030818939209,-0.02994701266288757,-0.04836630821228027,0.01196575164794922,2,0.6302742277728897,0.1378102103336409,0.001763973619444914,0.7640416209780759,0.2083618938922882,-0.9635976552963257,-0.1675254851579666,-3.633346557617188,-48.79907989501953,9.73736572265625,2
1596229564.795272,103,0,101897.000843125,-0.6997954104088039,0.8907335675967724,1.295113368903917,-0.0883990153670311,0.09201429039239883,-0.04094913601875305,-0.07308676838874817,-0.01576119661331177,0.127310574054718,2,0.6291888718453987,0.1361421721203954,-0.002612177308310426,0.7652318851632827,0.2116477638483047,-0.9622395038604736,-0.1711733490228653,-3.152000427246094,-48.50337219238281,9.885955810546875,2
1596229564.83269,104,0,101897.030938125,-0.6956624609035899,0.8898960537036787,1.29142682607003,-0.07625867426395416,0.1741047948598862,-0.1161909773945808,-0.0679967999458313,-0.02032482624053955,0.03040194511413574,2,0.6278201872912383,0.1380236791129798,-0.002231242130630584,0.7660198232531513,0.2142593860626221,-0.9612295031547546,-0.1735825538635254,-2.920188903808594,-48.75602722167969,9.723114013671875,2
1596229564.863045,105,0,101897.061032125,-0.6998691154433004,0.9001478926149493,1.287655960703078,0.02934598736464977,0.1513708084821701,-0.07945474982261658,0.1144388616085052,0.003974676132202148,-0.08046776056289673,2,0.6270149314520016,0.1415558486968584,-0.001588397631407779,0.7660364121171351,0.218865767121315,-0.9601828455924988,-0.1736284345388412,-2.786346435546875,-48.61244201660156,9.61676025390625,2
1596229564.911558,106,0,101897.091127125,-0.7013566757764313,0.9012820510087661,1.290047794495912,0.03135386854410172,-0.03380080312490463,0.1877734214067459,0.09947866201400757,0.02863579988479614,-0.1819718480110168,2,0.6278219536115488,0.1409342852715521,-0.001189261847446887,0.7654905327608421,0.217261016368866,-0.960848331451416,-0.1719542443752289,-2.818046569824219,-48.55097198486328,9.529388427734375,2
1596229564.930929,107,0,101897.121221125,-0.6978494092680053,0.8934162000537986,1.293710283527287,0.05219529941678047,-0.322618842124939,-0.005592113826423883,0.05578455328941345,0.02324879169464111,-0.02530086040496826,2,0.6286461536782918,0.1381249206772927,-0.001381508798465769,0.765325836563964,0.2131581008434296,-0.9618566632270813,-0.1714510321617126,-2.930656433105469,-48.61355590820312,9.78857421875,2
1596229564.971276,108,0,101897.151316125,-0.6927767154002284,0.8787354032363737,1.29143564231707,-0.0922582745552063,-0.285382479429245,0.08311738073825836,0.05349317193031311,-0.02123796939849854,0.008638620376586914,2,0.6276069482035915,0.1346504589231485,-0.004626030981194462,0.7667838266412372,0.2123022526502609,-0.9612319469451904,-0.1759575456380844,-2.716133117675781,-48.73601531982422,9.62750244140625,2
1596229564.998576,109,0,101897.181410125,-0.676145217391712,0.8575106316419703,1.291175015258904,-0.02281995117664337,-0.06803353875875473,0.1689733862876892,-0.04969298839569092,0.04302024841308594,0.05719900131225586,2,0.6263704159244114,0.131781618685309,-0.004962242622824187,0.7682897071409004,0.208709329366684,-0.9611600041389465,-0.1805874109268188,-2.909828186035156,-48.80422973632812,9.68658447265625,2
1596229565.033547,110,0,101897.211505125,-0.6627358815759957,0.8433199508374069,1.293584744015726,0.04650991782546043,-0.09796141088008881,0.3476954400539398,-0.110492080450058,-0.0002084970474243164,0.01903951168060303,2,0.6261916313109944,0.1299571968992301,-0.003661398081126643,0.7687534437166834,0.2043955624103546,-0.9618222713470459,-0.1819903403520584,-2.886772155761719,-48.67120361328125,9.47882080078125,2
1596229565.066126,111,0,101897.271694125,-0.6440449151317414,0.8385895368712176,1.295924083931053,-0.1044394969940186,0.2991688251495361,-0.09195709973573685,-0.1097674667835236,0.002055466175079346,0.05682188272476196,2,0.6256739862694375,0.1334426577426467,0.002609230050975186,0.7685819913834058,0.2018581926822662,-0.9624598622322083,-0.1814502328634262,-3.39178466796875,-48.73542785644531,9.436004638671875,2
1596229565.102932,112,0,101897.301788125,-0.6491468148378517,0.8509681281737724,1.29210484793603,0.03608844429254532,0.164936825633049,-0.1577053517103195,0.01702398061752319,0.01813328266143799,-0.001985132694244385,2,0.6248323532676188,0.1374936215741245,0.00359254712360324,0.7685488139270078,0.2068516463041306,-0.9614162445068359,-0.1813600659370422,-3.461326599121094,-48.66744232177734,9.437103271484375,2
1596229565.148881,113,0,101897.331883125,-0.6608647012996657,0.8644738070943694,1.289390417867989,-0.02247434109449387,0.02073101326823235,-0.07579087466001511,0.04444155097007751,0.04519009590148926,-0.03882294893264771,2,0.624798909165308,0.1396600940593548,0.002644387076149779,0.7681890228897814,0.2112662792205811,-0.9606659412384033,-0.1802427619695663,-3.202522277832031,-48.80252075195312,9.19329833984375,2
1596229565.168984,114,0,101897.361977125,-0.661919098534779,0.8664656566366273,1.289284380197441,0.01242453884333372,0.02613143250346184,0.002686287276446819,0.05728954076766968,-0.03919041156768799,-0.04379075765609741,2,0.6248377300836371,0.1401209107400068,0.002835353698782461,0.7680729524736856,0.211702898144722,-0.9606364965438843,-0.1798878759145737,-3.282318115234375,-48.63726043701172,9.37103271484375,2
1596229565.209861,115,0,101897.392072125,-0.665176233000155,0.8689576922366504,1.288676330172737,0.04878193512558937,-0.06006760150194168,-0.07730665057897568,0.03917258977890015,0.03525406122207642,-0.05219948291778564,2,0.6248795751579649,0.1402045871883181,0.002212747554107497,0.7680255280184773,0.2125959992408752,-0.9604673981666565,-0.1797363758087158,-3.336875915527344,-48.85031890869141,9.216400146484375,2
1596229565.236899,116,0,101897.422166125,-0.6740092752715534,0.8760455127495772,1.289088936698181,-0.001279037445783615,0.005134762264788151,0.07621257752180099,0.08671849966049194,0.0028533935546875,0.02638059854507446,2,0.6256164365050154,0.1400654413708359,0.001140477693996611,0.7674532283381917,0.2135603427886963,-0.9605821967124939,-0.1779714971780777,-3.123939514160156,-48.74366760253906,9.308349609375,2
1596229565.270095,117,0,101897.452261125,-0.6589492101841651,0.8604748486931294,1.292683895778721,0.02104232087731361,-0.06926468014717102,0.2042971253395081,0.03581041097640991,-0.0142676830291748,0.0001471638679504395,2,0.6256679000492702,0.1379443876163109,0.00294155729906842,0.7677905671330256,0.2081439197063446,-0.9615753889083862,-0.1790220439434052,-3.421699523925781,-48.94243621826172,9.345184326171875,2
1596229565.305238,118,0,101897.482355125,-0.6494848306284108,0.8510147121315029,1.296071058509612,-0.01579640060663223,0.03445740044116974,0.1012754961848259,0.008310943841934204,0.02943915128707886,0.02116751670837402,2,0.6260640385558225,0.1364783292994789,0.004443762667833862,0.7677224293781675,0.2039907872676849,-0.962499737739563,-0.1788349747657776,-3.476921081542969,-48.73756408691406,9.447052001953125,2
1596229565.337299,119,0,101897.542544125,-0.6539853025037203,0.8521399061273109,1.300772872066708,0.1542666107416153,0.01113807037472725,0.0622137039899826,0.03037536144256592,0.02594393491744995,-0.008559584617614746,2,0.6277941647946245,0.1343970874973372,0.004217258121509249,0.7666772961204967,0.2007832527160645,-0.9637646675109863,-0.175623819231987,-3.856941223144531,-48.77854919433594,9.848419189453125,2
1596229565.382821,120,0,101897.572639125,-0.6488959953409263,0.8491774199039487,1.304516179549007,-0.1947159320116043,0.05309201776981354,0.1006538867950439,0.01230210065841675,0.008256912231445312,0.07077264785766602,2,0.6285950966219095,0.1339830189211168,0.006149499574556294,0.7660802445796243,0.1975523978471756,-0.9647564291954041,-0.173833504319191,-4.227882385253906,-48.86891174316406,9.819000244140625,2
1596229565.405332,121,0,101897.602733125,-0.6170019612688606,0.8190371032815483,1.299428731050641,-0.210109144449234,0.009312398731708527,0.1122568696737289,-0.06518340110778809,-0.01651901006698608,0.004481136798858643,2,0.6250020582734852,0.1335802195060096,0.00772656305989744,0.7690702532240183,0.1958069056272507,-0.9634051918983459,-0.183057501912117,-4.155754089355469,-48.94341278076172,9.498260498046875,2
