loggingTime,loggingSample,identifierForVendor,motionTimestamp_sinceReboot,motionYaw,motionRoll,motionPitch,motionRotationRateX,motionRotationRateY,motionRotationRateZ,motionUserAccelerationX,motionUserAccelerationY,motionUserAccelerationZ,motionAttitudeReferenceFrame,motionQuaternionX,motionQuaternionY,motionQuaternionZ,motionQuaternionW,motionGravityX,motionGravityY,motionGravityZ,motionMagneticFieldX,motionMagneticFieldY,motionMagneticFieldZ,motionMagneticFieldCalibrationAccuracy
1596229593.622157,1,0,101925.80123375,-0.5931081990311025,0.8036000582816137,1.247962129861442,-0.05464054644107819,-0.001715703401714563,0.1300350427627563,0.02183523774147034,0.01810300350189209,-0.03348195552825928,2,0.6070127860334292,0.1463855756778993,0.0002487241596408341,0.7810933029817523,0.2283796221017838,-0.9483400583267212,-0.2202134877443314,-2.2506103515625,-49.20423889160156,7.61151123046875,2
1596229593.640721,2,0,101925.83132775,-0.5955296695576136,0.8018749837241176,1.251655883822263,0.05961815267801285,-0.1029032170772552,-0.0149366520345211,0.03638508915901184,1.186132431030273e-05,-0.04627948999404907,2,0.6083834368004085,0.1441690262998423,-0.0003699646819060876,0.7804388422959605,0.2254803776741028,-0.9495054483413696,-0.218169778585434,-2.550430297851562,-49.18634033203125,7.60986328125,2
1596229593.675994,3,0,101925.86142175,-0.5923056052678024,0.7966838849447745,1.251279354042982,0.03379030153155327,-0.02820660918951035,0.04499419778585434,-0.04357960820198059,-0.005066812038421631,0.002825081348419189,2,0.6080284751605057,0.1432053657646612,-0.0007766146337281343,0.780892442640743,0.2246003895998001,-0.94938725233078,-0.2195871919393539,-2.626396179199219,-49.06552886962891,7.695281982421875,2
1596229593.708516,4,0,101925.89151675,-0.5980175761423959,0.8055211506660969,1.251786585799052,0.01524828933179379,0.1933574825525284,-0.08937040716409683,-0.07075878977775574,0.03331804275512695,0.03917831182479858,2,0.6086059544568465,0.1448059511266122,-0.0002010562532204219,0.780147381334622,0.2261846959590912,-0.9495464563369751,-0.2172600626945496,-2.557151794433594,-49.27667999267578,7.654205322265625,2
1596229593.743665,5,0,101925.92161075,-0.6020011437529216,0.8138664931705278,1.251933883465503,0.04502587392926216,0.1399369835853577,0.07492934167385101,0.03264802694320679,-0.02110928297042847,-0.01015651226043701,2,0.6089424170996079,0.1468149528569282,0.000820036006048408,0.7795087247734539,0.227888360619545,-0.949592649936676,-0.21526899933815,-2.694625854492188,-49.30403900146484,7.907806396484375,2
1596229593.776552,6,0,101925.98179875,-0.598707170247532,0.8168904223286777,1.254109187048837,0.02600545436143875,0.09824113547801971,-0.1139793395996094,-0.01752474904060364,0.009486198425292969,0.01526886224746704,2,0.6093938096801254,0.1485156301256518,0.003531140208942019,0.7788259809850651,0.227031946182251,-0.9502723217010498,-0.2131645828485489,-2.703536987304688,-49.21410369873047,7.8446044921875,2
1596229593.812013,7,0,101926.01189375,-0.6046932562203701,0.8245290011192896,1.24756305729288,-0.1465502679347992,-0.1042962893843651,-0.2955310344696045,-0.01678666472434998,-0.02508604526519775,0.02929991483688354,2,0.6077344556052841,0.1511213097026914,0.001991619711981196,0.779626215549274,0.2332155108451843,-0.9482133984565735,-0.2156423628330231,-2.343116760253906,-48.95172119140625,7.67620849609375,2
1596229593.844021,8,0,101926.04198775,-0.6184899017997195,0.8328007069210637,1.24274086495989,0.0307820551097393,-0.04593922942876816,-0.1059840992093086,0.007362157106399536,0.04907989501953125,-0.07117080688476562,2,0.6072379399353522,0.151235426962948,-0.002014747388665139,0.7799908475995331,0.2383713573217392,-0.9466706514358521,-0.2167798578739166,-2.156517028808594,-49.09088134765625,7.64910888671875,2
1596229593.888453,9,0,101926.07208175,-0.6206919588083837,0.8348717212083568,1.241129822793616,-0.02249736711382866,0.008261715993285179,-0.01342795975506306,0.06525656580924988,0.03068459033966064,0.01830917596817017,2,0.6068944477562636,0.1517381939655412,-0.002628354136451627,0.7801587284996803,0.2399500161409378,-0.9461503624916077,-0.217309296131134,-2.019065856933594,-49.19348907470703,7.668060302734375,2
1596229593.911553,10,0,101926.10217575,-0.612994405837017,0.8272291397649887,1.24198947155387,-0.06663044542074203,-0.02771923691034317,0.1050891354680061,-0.1308418214321136,-0.06586605310440063,-0.0154920220375061,2,0.6065777371439693,0.1508981796757035,-0.001739614135222556,0.7805704458910723,0.2376837432384491,-0.9464282989501953,-0.2185863703489304,-2.064582824707031,-49.32172393798828,7.5609130859375,2
1596229593.948873,11,0,101926.13226975,-0.6170760187875944,0.8352922160748135,1.240185950739131,0.07187394797801971,0.2531811594963074,-0.2587865889072418,-0.07829895615577698,0.104013204574585,-0.0158076286315918,2,0.6063185633721707,0.153211903657154,-0.001315001046176212,0.7803219165608888,0.2407038360834122,-0.9458443522453308,-0.2178078293800354,-2.179267883300781,-49.27400970458984,7.548492431640625,2
1596229593.979462,12,0,101926.16236475,-0.6417243921851912,0.861984677977138,1.237347528901293,0.2056119590997696,0.008736077696084976,-0.1783395856618881,-0.01715070009231567,0.005862176418304443,-0.05660676956176758,2,0.6073648322010561,0.1567857962004116,-0.003508145118658101,0.7787899176240002,0.2484678477048874,-0.9449191689491272,-0.2130523473024368,-1.687118530273438,-49.09270477294922,8.0325927734375,2
1596229594.014658,13,0,101926.19245875,-0.6541299920906375,0.8742038850407537,1.236558471601532,0.00192854180932045,0.01166499964892864,-0.1311085075139999,0.003210186958312988,-0.008605718612670898,0.04070019721984863,2,0.6081204704412635,0.1579557417338132,-0.004817495005384975,0.7779564683488394,0.2516246140003204,-0.9446606040000916,-0.2104789614677429,-1.686531066894531,-49.07559204101562,8.036895751953125,2
1596229594.04708,14,0,101926.25264675,-0.6935727829783457,0.9254438974061523,1.229019161977287,0.1589574068784714,0.4707798957824707,-0.2997416853904724,-0.06130844354629517,0.01516735553741455,0.005923986434936523,2,0.6091750232612625,0.1676580231913213,-0.006450268093743161,0.7750838083406837,0.2677567303180695,-0.9421604871749878,-0.2015931606292725,-1.127494812011719,-49.11990356445312,8.2218017578125,2
1596229594.082118,15,0,101926.28274075,-0.7207051589131088,0.9672975465917973,1.225148105203875,0.182877704501152,0.5072917342185974,-0.2966490089893341,-0.07635104656219482,0.04024326801300049,0.01829349994659424,2,0.6104862442115924,0.1765382047460403,-0.00520342928899481,0.7720839294795907,0.27895787358284,-0.9408560395240784,-0.1922816187143326,-0.8438949584960938,-48.76338958740234,8.663299560546875,2
1596229594.131391,16,0,101926.31283575,-0.7538375707818007,1.015245791242913,1.219160262478916,0.2311019599437714,0.713151752948761,-0.447898656129837,-0.1039882600307465,0.05645078420639038,-0.01744985580444336,2,0.6118968218646428,0.1864219489170741,-0.004945715419216345,0.7686381095808252,0.2926345765590668,-0.9388104677200317,-0.1816582679748535,-0.42864990234375,-48.73454284667969,8.666473388671875,2
1596229594.149901,17,0,101926.34292975,-0.7966121384619645,1.081506229403177,1.212003770833108,0.4686464071273804,0.9933845400810242,-0.4208338260650635,-0.02426710724830627,0.02826344966888428,0.003718018531799316,2,0.6142007799287763,0.2005959048157945,-0.003047968026622216,0.7632229909270055,0.3099429309368134,-0.936321496963501,-0.1650373637676239,-0.06090545654296875,-48.97513580322266,9.136627197265625,2
1596229594.186304,18,0,101926.37302375,-0.8609507067161895,1.175804380323433,1.210454966172155,0.6217249035835266,1.231642961502075,-0.2979045510292053,0.002170830965042114,0.05426144599914551,-0.02891504764556885,2,0.6205666698862778,0.2169282524356257,0.00119956046342562,0.7535500413366638,0.3254437744617462,-0.9357765316963196,-0.1356782764196396,0.2809371948242188,-48.79115295410156,9.545379638671875,2
1596229594.220076,19,0,101926.40311775,-0.9100630365060273,1.263504900721917,1.209445566649823,0.5644637942314148,1.451159834861755,-0.1916908323764801,0.169408768415451,0.01906454563140869,-0.005501806735992432,2,0.6256365661400933,0.2347554640264312,0.009819914992248768,0.7438900034032023,0.33697709441185,-0.9354201555252075,-0.1069375202059746,0.3601226806640625,-48.65438842773438,10.91375732421875,2
1596229594.250465,20,0,101926.43321275,-0.9529331675064041,1.334498261605649,1.210701613053602,0.4060647487640381,0.559685230255127,0.133580669760704,0.3542767763137817,-0.06619465351104736,-0.1583109498023987,2,0.6306038574479479,0.2471715647448621,0.01666696469426565,0.7355047418656802,0.3425711989402771,-0.9358634352684021,-0.0824899822473526,0.2862319946289062,-48.56320190429688,11.3973388671875,2
1596229594.287249,21,0,101926.46330675,-0.9835268575233318,1.371241810626826,1.223480942644647,0.4712909162044525,-0.02428224310278893,0.3632059395313263,0.1970566213130951,-0.02134990692138672,-0.149402916431427,2,0.6365893621287148,0.2470167650820598,0.02132746653900935,0.7302614897882138,0.3336199820041656,-0.9402898550033569,-0.067473404109478,-0.06938934326171875,-48.32206726074219,12.31341552734375,2
1596229594.319748,22,0,101926.52349475,-1.070574556686772,1.453903073445556,1.233876548273818,0.435576468706131,-0.05667605251073837,-0.01810842752456665,-0.1647048592567444,0.05666255950927734,0.04433125257492065,2,0.6483285171580515,0.2457493626854168,0.019834812214924,0.7203359069159592,0.3283252418041229,-0.9437773823738098,-0.03855476900935173,-0.5304412841796875,-47.63336944580078,13.7073974609375,2
1596229594.368926,23,0,101926.55358875,-1.112971930196218,1.492911073549391,1.233034615290223,0.4651988446712494,-0.05178109556436539,-0.08810529857873917,-0.0713653564453125,0.03366011381149292,-0.02090203762054443,2,0.6530519768414935,0.2462346385010865,0.01701079543467859,0.7159624981548612,0.3303716778755188,-0.9434987306594849,-0.0257832370698452,-0.5800704956054688,-47.96596527099609,14.48779296875,2
1596229594.386979,24,0,101926.58368375,-1.139120961089247,1.515797560321795,1.23176121065723,0.1330585479736328,-0.06719295680522919,-0.056095190346241,-0.05816775560379028,-0.07321357727050781,0.06002861261367798,2,0.6559035880087293,0.2462710320069081,0.01471243307604053,0.7133895346009723,0.3320744931697845,-0.9430760145187378,-0.01828212477266788,-0.5317459106445312,-47.64903259277344,14.73663330078125,2
1596229594.430399,25,0,101926.61377775,-1.155527228222402,1.532909227354394,1.227498052753218,0.2421553581953049,0.1039319261908531,-0.2522265911102295,-0.129108190536499,0.03615045547485352,0.08915150165557861,2,0.6572167757040751,0.2483773964755372,0.0129930076770986,0.7114815868301384,0.3363534510135651,-0.9416496157646179,-0.01274955738335848,-0.01377105712890625,-47.57259368896484,15.2222900390625,2
1596229594.453487,26,0,101926.64387175,-1.172259201818898,1.546018659188967,1.21935563746608,0.1125207617878914,-0.07569783180952072,-0.2599852383136749,-0.05817675590515137,0.008393824100494385,-0.005121946334838867,2,0.6581268719659753,0.2502090902119478,0.008496946200510946,0.7100649907997985,0.3441452980041504,-0.9388777017593384,-0.008528863079845905,0.1493988037109375,-47.42018127441406,15.33047485351562,2
1596229594.488675,27,0,101926.67396575,-1.18698866295106,1.559878581090352,1.212433159354484,0.1895225495100021,-0.01555503439158201,-0.2258061915636063,0.01850324869155884,-0.008264899253845215,-0.009868741035461426,2,0.6590162978508187,0.2525527664121353,0.00539822422337316,0.7084388608756775,0.3507213592529297,-0.9364721775054932,-0.003829238703474402,0.7559051513671875,-47.32550811767578,15.54031372070312,2
1596229594.521211,28,0,101926.704061,-1.199615636617164,1.569459347198524,1.20764341662083,0.2066355049610138,-0.1062931269407272,-0.06088962033390999,0.1010539829730988,0.02612465620040894,-0.07888078689575195,2,0.659978528712892,0.2533591886913918,0.002397014177015211,0.7072706406014951,0.3552230894565582,-0.9347814917564392,-0.0004749262880068272,0.9695510864257812,-47.35505676269531,15.72195434570312,2
1596229594.556007,29,0,101926.734155,-1.219215168644487,1.582874696610373,1.20614863795543,0.1546359956264496,-0.3134811818599701,-0.0977075919508934,0.01296395063400269,0.0312313437461853,0.01527225971221924,2,0.6622633006149615,0.2521129999058032,-0.0006202581375194804,0.7055820621652956,0.3565943837165833,-0.9342494606971741,0.004307288210839033,1.002998352050781,-47.05671691894531,15.92568969726562,2
1596229594.588737,30,0,101926.794343,-1.220830160838281,1.568237889519466,1.197473729398357,-0.09634383767843246,-0.4181055426597595,-0.1132543236017227,-0.03732818365097046,0.0610659122467041,-0.1209126710891724,2,0.66135736824971,0.2492787324821118,-0.009103628440596589,0.707378057521925,0.3647101223468781,-0.9311206936836243,-0.000933089992031455,1.584648132324219,-47.03663635253906,16.22531127929688,2
1596229594.623844,31,0,101926.824437,-1.212993590210165,1.540655159472528,1.19537624995275,-0.1161131858825684,-0.9460476040840149,-0.06007866933941841,0.1089934110641479,-0.1085497736930847,-0.1478925943374634,2,0.659948804701719,0.2427809226121375,-0.01617595835297231,0.7108188534554882,0.366497129201889,-0.9303537011146545,-0.01104999799281359,1.715324401855469,-47.17048645019531,15.96624755859375,2
1596229594.669464,32,0,101926.854532,-1.200870517618912,1.492886056936451,1.189447380065249,-0.1690200120210648,-1.301798820495605,-0.3123096823692322,0.1064305305480957,0.03063410520553589,-0.0286177396774292,2,0.6571466547939092,0.2316783950803824,-0.02965405234400248,0.7166618276808379,0.371044248342514,-0.9281634092330933,-0.02896679006516933,2.623336791992188,-47.08969116210938,15.76992797851562,2
1596229594.691631,33,0,101926.884626,-1.201935204154603,1.462979064104966,1.185027949756323,0.1227467656135559,-0.9070309996604919,0.07205206155776978,0.05224621295928955,0.01287555694580078,0.0648152232170105,2,0.6560899017891665,0.2220383858178124,-0.041389512361175,0.7200916418192628,0.3740864396095276,-0.9265095591545105,-0.04048999026417732,3.063468933105469,-47.20541381835938,15.58865356445312,2
1596229594.730176,34,0,101926.91472,-1.201935827472242,1.437409091273044,1.18519163603387,-0.03962736576795578,-0.7422009110450745,-0.1495597660541534,0.01737725734710693,-0.006181120872497559,0.08852589130401611,2,0.6555322976264388,0.2127602685955109,-0.04971797051293958,0.7228684132396904,0.3727788329124451,-0.9265711903572083,-0.05002094805240631,3.653884887695312,-47.32721710205078,15.32278442382812,2
1596229594.759238,35,0,101926.944814,-1.207747871471215,1.418192423071531,1.179581288994908,0.09570220857858658,-0.696521520614624,-0.1834449172019958,-0.1182030439376831,0.05808782577514648,0.1647352576255798,2,0.6547427765611272,0.2057422034419186,-0.06004241642063829,0.7248288839779622,0.3768804669380188,-0.9244464635848999,-0.05796408280730247,4.254127502441406,-47.12515258789062,15.33169555664062,2
1596229594.792005,36,0,101926.974909,-1.21618273049576,1.416910720802377,1.176906895087498,0.03371391817927361,-0.1282036155462265,0.005289068445563316,-0.002529263496398926,0.01699632406234741,0.276311457157135,2,0.6551473166449395,0.2033938466950412,-0.06443505688102663,0.724749010557949,0.3792478740215302,-0.9234233498573303,-0.05882587283849716,4.78118896484375,-47.24822998046875,15.17916870117188,2
1596229594.827009,37,0,101927.005003,-1.207974800131919,1.404433559427407,1.178511434963946,-0.2412383556365967,-0.1179546043276787,0.05960841849446297,-0.03797873854637146,-0.08192920684814453,0.1626430153846741,2,0.6541667010480923,0.2010276315056909,-0.06499297109099716,0.7262435717251285,0.3770225346088409,-0.9240379333496094,-0.06330763548612595,4.777915954589844,-47.17714691162109,15.27761840820312,2
1596229594.859585,38,0,101927.065191,-1.13927375183376,1.358912631053211,1.160079166897832,-0.7130427956581116,0.7855073213577271,-0.1700539737939835,0.01913124322891235,-0.02906298637390137,0.3625776171684265,2,0.6424877948735983,0.2126643725712122,-0.06092501497832037,0.7336698751798549,0.3903380334377289,-0.9168347120285034,-0.08396659791469574,5.014396667480469,-47.65689849853516,14.0787353515625,2
1596229594.910493,39,0,101927.095286,-1.075335234819123,1.31871794437125,1.15528145000652,-1.002116680145264,0.4381136894226074,0.1073139831423759,0.07503074407577515,-0.1346529126167297,0.04948133230209351,2,0.633529661885686,0.2197729307702511,-0.05179148952753404,0.7400390205593729,0.3909039795398712,-0.9149085879325867,-0.1006800532341003,4.976097106933594,-47.61331939697266,13.3953857421875,2
1596229594.927807,40,0,101927.12538,-1.003246002414156,1.263801385806919,1.143653697059009,-1.067497849464417,0.3072619438171387,-0.3012575209140778,0.03455546498298645,0.05425429344177246,0.188118040561676,2,0.6217189518635853,0.2255437167269689,-0.04599805345035246,0.7486520498698976,0.3949032425880432,-0.9101532101631165,-0.1251911520957947,4.699874877929688,-48.29924011230469,11.53118896484375,2
1596229594.970955,41,0,101927.155474,-0.9339274128635789,1.204242269918203,1.125761162623504,-1.140793919563293,-0.1911753863096237,-0.05551271513104439,0.1279687881469727,-0.001759171485900879,0.0084342360496521,2,0.6083353504226081,0.2297481119778738,-0.04388634969652333,0.7584312990122333,0.4018915593624115,-0.9025955200195312,-0.1542878150939941,4.905181884765625,-48.33693695068359,10.69873046875,2
1596229594.995144,42,0,101927.185568,-0.8644276515379183,1.132603141558738,1.11484436020109,-0.9717890620231628,-0.1179004535079002,0.03043919429183006,0.02072811126708984,-0.1418752670288086,0.03884387016296387,2,0.5960823791864622,0.2264322793706687,-0.04226310848310189,0.7691736610343406,0.3987160921096802,-0.8978422880172729,-0.1868284344673157,5.073402404785156,-48.88835144042969,8.52301025390625,2
1596229595.030901,43,0,101927.215662,-0.8014476525977187,1.093848883300124,1.094000759843452,-1.535884618759155,1.438819646835327,-0.4382222890853882,-0.2061206102371216,-0.07161438465118408,0.4909480810165405,2,0.5823289700678304,0.2356938292605188,-0.03549754336521338,0.7772266683223069,0.4077175557613373,-0.8884701132774353,-0.2106827795505524,5.019989013671875,-48.95572662353516,7.364898681640625,2
1596229595.062718,44,0,101927.245757,-0.6913379783981666,1.068893973767153,1.048338964823761,-3.329219818115234,3.521222591400146,-0.6086143255233765,-0.2365561723709106,-0.1572411060333252,0.2127441167831421,2,0.5546388606791602,0.2689609612308348,-0.0125752321120966,0.7873231586207828,0.4374678134918213,-0.8665955662727356,-0.2400714755058289,5.490554809570312,-49.24751281738281,4.359375,2
1596229595.097801,45,0,101927.275851,-0.5197724796728536,1.057570331349954,0.9702980661972633,-4.070371150970459,4.846612453460693,-0.9267719388008118,-0.439624160528183,-0.2607816457748413,0.4722693562507629,2,0.5038047510102649,0.3278152853871489,0.03109054999918492,0.7985933605423919,0.4922550916671753,-0.8250541687011719,-0.2774358093738556,5.856491088867188,-49.28926849365234,1.471954345703125,2
1596229595.148458,46,0,101927.336039,-0.2342203382038721,1.13380678028458,0.7729600257064979,-4.821351051330566,5.156671524047852,-1.874876856803894,-0.1733125448226929,-0.001308858394622803,0.1143549084663391,2,0.3739075007075466,0.4568534126293029,0.1097388740808329,0.7996470524204272,0.6485785841941833,-0.6982572078704834,-0.3029562830924988,10.48284149169922,-47.62873077392578,-7.52801513671875,2
1596229595.165525,47,0,101927.366134,-0.06678601229877304,1.205451129208102,0.6727238392728545,-5.442644596099854,6.922003269195557,-0.9023164510726929,0.04112458229064941,0.06755805015563965,0.4525022506713867,2,0.2896116845564548,0.5257462023305193,0.1610379800960157,0.7834429621782499,0.7305073738098145,-0.6231186985969543,-0.2794319987297058,15.69876861572266,-44.82769012451172,-13.03231811523438,2
1596229595.208946,48,0,101927.396228,0.1197427894347341,1.320596838894516,0.6052086967506889,-5.185652732849121,8.021471977233887,-0.4227931797504425,-0.09473627805709839,0.3143193125724792,0.6009019613265991,2,0.1999143299122554,0.5985184460777869,0.2275674614957236,0.7416353561358329,0.7967768907546997,-0.5689337253570557,-0.2036198675632477,18.38128662109375,-42.77969360351562,-15.14413452148438,2
1596229595.233277,49,0,101927.426322,0.2854359531311972,1.483629258593035,0.5698193000055698,-4.217884540557861,8.589300155639648,-0.3320932388305664,0.4518069624900818,0.5064587593078613,0.8389689922332764,2,0.1128877640570629,0.6712715765540496,0.2886020656624851,0.6733200115392644,0.8388018608093262,-0.5394799113273621,-0.07330164313316345,24.68222045898438,-38.73981475830078,-16.22158813476562,2
1596229595.26934,50,0,101927.456416,0.4087081395102611,1.634785441561655,0.5604739553793813,-2.710622310638428,5.012642860412598,-0.1321843415498734,0.9976363182067871,0.312930166721344,-0.1224797964096069,2,0.04304109543172641,0.7247264791518975,0.3309494552435451,0.6028196063549318,0.8452697992324829,-0.5315877199172974,0.05416201055049896,27.55319213867188,-37.55623626708984,-15.04550170898438,2
1596229595.300923,51,0,101927.486511,0.4730050738388848,1.678059522853699,0.5745792291896322,-0.9682894945144653,-0.0576239675283432,0.8609786629676819,1.151364922523499,0.6645360589027405,-0.5124795436859131,2,0.0168859589406587,0.7380027665936391,0.3550875306370869,0.5735675127599423,0.8345968127250671,-0.5434816479682922,0.08986643701791763,30.58963012695312,-35.92214965820312,-13.12979125976562,2
1596229595.333699,52,0,101927.516605,0.4579784931041633,1.620931006659772,0.6086273528311374,1.924187421798706,-4.19865608215332,0.9954451322555542,1.190396785736084,1.491755723953247,-0.7343506813049316,2,0.04418512645817396,0.7201424525607498,0.3606999821430131,0.5910483669989243,0.8194028735160828,-0.5717418193817139,0.04111495614051819,28.22801208496094,-37.11668395996094,-14.89959716796875,2
1596229595.368882,53,0,101927.546699,0.3604815562268697,1.531969523350156,0.6172757835094057,2.300642967224121,-4.614058971405029,-0.2060990333557129,0.399712860584259,0.7264783382415771,0.4984575510025024,2,0.09697061201533924,0.6890354546192334,0.3302627637447078,0.6377721891297844,0.8148437142372131,-0.5788158178329468,-0.03165368363261223,26.42536926269531,-38.25224304199219,-15.64102172851562,2
1596229595.401321,54,0,101927.606888,0.3621173432845226,1.378522872747637,0.6581343237655344,-0.3561798632144928,1.466441988945007,0.872957706451416,-0.7194189429283142,-0.3754980564117432,0.000583648681640625,2,0.1369367633884755,0.6369136178589486,0.3336673834414625,0.6813631004868874,0.7765561938285828,-0.6116419434547424,-0.1511787325143814,21.89987182617188,-39.30146026611328,-19.04876708984375,2
1596229595.451673,55,0,101927.636982,0.3854275089095813,1.444242276735548,0.6640208879354158,-0.745439887046814,3.070308685302734,-0.1001248434185982,-0.4681509137153625,0.3757160305976868,0.2340947389602661,2,0.1203833834958728,0.6601581508264052,0.3473250018397564,0.6550301664463839,0.7812227010726929,-0.6162883639335632,-0.09939811378717422,22.26568603515625,-39.57908630371094,-18.35894775390625,2
1596229595.469109,56,0,101927.667076,0.3910216122403573,1.506871182142091,0.6656045805824726,0.2948230504989624,1.071390748023987,0.3507202565670013,0.2028745412826538,-0.06934040784835815,-0.2997658252716064,2,0.1081163047282918,0.6805791853908562,0.3531616677697899,0.6327714147934712,0.7849370241165161,-0.6175347566604614,-0.05024567246437073,23.05753326416016,-39.35325622558594,-17.42193603515625,2
1596229595.513487,57,0,101927.6971695417,0.3906861206922163,1.514476447148255,0.681018774408065,-0.247265949845314,-0.2597759068012238,0.5510216951370239,0.1391600370407104,-0.5372782945632935,0.04432791471481323,2,0.1124126425723727,0.6822731223566149,0.3580073079570992,0.6274531844210355,0.77569979429245,-0.6295848488807678,-0.04373356699943542,23.16156005859375,-39.77354431152344,-16.595703125,2
1596229595.536795,58,0,101927.7272635417,0.4016178073706138,1.500012346682547,0.6952619166668456,-0.231158509850502,-0.009097293019294739,0.4689867794513702,-0.1235721707344055,-0.1521069407463074,0.09985876083374023,2,0.1164262163705781,0.677709825161424,0.3647634342822149,0.627775520156082,0.7659631967544556,-0.6405865550041199,-0.05430865660309792,22.78388214111328,-39.97737884521484,-16.86233520507812,2
1596229595.571796,59,0,101927.7573585417,0.411582551461238,1.503008561235764,0.7103519526437103,-0.1299028247594833,0.4415973126888275,0.5109925866127014,-0.3301206231117249,0.1196310520172119,0.1343696713447571,2,0.1179259910618087,0.6785404045884217,0.3724023218907903,0.6220876011287457,0.7563913464546204,-0.6521006226539612,-0.05135276168584824,22.05278015136719,-40.60403442382812,-17.23886108398438,2
1596229595.604594,60,0,101927.7874525417,0.4075445948054271,1.523227192789248,0.7194801344381833,0.2532058954238892,0.6669885516166687,0.05426792055368423,-0.007073044776916504,0.2468398809432983,-0.01928806304931641,2,0.1187909731774612,0.6841095856941531,0.3749882242669349,0.614220355252612,0.751297652721405,-0.6589937210083008,-0.03576555848121643,21.91745758056641,-40.54691314697266,-16.89321899414062,2
1596229595.639546,61,0,101927.8175465417,0.4024610792664568,1.52983352025646,0.7207077376928341,0.06757516413927078,-0.6744066476821899,0.2246856689453125,0.4884578585624695,0.1661862730979919,-0.1047502756118774,2,0.1197312829238679,0.6857698212645145,0.3741804852015153,0.6126770529029627,0.7507086396217346,-0.6599165797233582,-0.03076834417879581,22.10620880126953,-40.74179840087891,-16.488037109375,2
1596229595.690289,62,0,101927.8777355417,0.3931477569266738,1.488800137797114,0.7561491377883065,0.09469664841890335,0.2911070883274078,0.1649293303489685,-0.5875822901725769,-0.2728789448738098,0.1836497187614441,2,0.1432824587625445,0.6705804238777244,0.3787862548963287,0.6215408611746009,0.7250394225120544,-0.6861250996589661,-0.05958406254649162,19.75009918212891,-41.67340087890625,-17.27618408203125,2
1596229595.70732,63,0,101927.9078295417,0.3926431986399033,1.513314179114413,0.7467677632420328,-0.1062322333455086,1.264157176017761,-0.5857382416725159,-0.3595723509788513,-0.2647339701652527,-0.03857827186584473,2,0.1354577302486939,0.6786531358674011,0.3776654287007861,0.6151828933173583,0.7326762080192566,-0.6792702078819275,-0.04216225072741508,19.75263977050781,-41.78179931640625,-16.967041015625,2
1596229595.753949,64,0,101927.9379235417,0.3979195567823264,1.547068863024837,0.737433021268951,-0.1312683075666428,0.7527412176132202,0.1580286175012589,0.3773720264434814,0.00626373291015625,-0.1117544770240784,2,0.123962480802625,0.689820719554522,0.3787490775258728,0.604425370114216,0.7399889230728149,-0.6723900437355042,-0.01756135560572147,21.21177673339844,-41.30364227294922,-16.20462036132812,2
1596229595.774973,65,0,101927.9680175417,0.3974682849370912,1.545270295367345,0.754866007439014,0.1782287806272507,-0.6570346355438232,0.7711516618728638,0.3953280448913574,0.2111752033233643,-0.1021517515182495,2,0.1305942418724925,0.6882223752069616,0.3836060487943656,0.6017820739760321,0.7281262874603271,-0.6851910948753357,-0.01859021186828613,21.21896362304688,-41.2698974609375,-15.88232421875,2
1596229595.810416,66,0,101927.9981125417,0.3900769544592806,1.523648114589855,0.77088138225238,0.1634643077850342,-1.064165592193604,0.2326187342405319,0.06732618808746338,0.1843010187149048,0.05743205547332764,2,0.1429265983508862,0.6801974823863153,0.3845325457568581,0.607485187649594,0.716499924659729,-0.6967677474021912,-0.03380674496293068,20.18940734863281,-41.92617797851562,-16.26034545898438,2
1596229595.84266,67,0,101928.0282065417,0.3838719491690817,1.5007000606514,0.7743636235429976,0.1723586022853851,-0.5462106466293335,0.09839540719985962,-0.1854653358459473,-0.01373386383056641,0.004696130752563477,2,0.1506604368835637,0.6725081489885995,0.3819446886236756,0.6157537628335671,0.7131109237670898,-0.6992613077163696,-0.0500684455037117,19.0517578125,-42.21397399902344,-16.68072509765625,2
1596229595.875264,68,0,101928.0583005417,0.3770744063869121,1.498605004556383,0.7814222948969162,0.2012510895729065,-0.1747075468301773,0.3372825086116791,-0.1092754006385803,-0.1013202667236328,-0.01156246662139893,2,0.1558625816389202,0.6708981615732237,0.3816906282478484,0.6163722961409995,0.7080634832382202,-0.7042898535728455,-0.05120502412319183,18.8238525390625,-42.28507995605469,-16.70767211914062,2
1596229595.912356,69,0,101928.0883945417,0.3689119148032995,1.493137648947594,0.791135153252626,0.2178683280944824,-0.5457412600517273,0.2196608185768127,-0.05650448799133301,-0.1482152342796326,-0.04095709323883057,2,0.1631039675334373,0.6679266475433021,0.3814812826500566,0.6178536349559511,0.7009195685386658,-0.7111517786979675,-0.0545421801507473,18.19352722167969,-42.49334716796875,-16.55715942382812,2
1596229595.943078,70,0,101928.1485835417,0.345829710193049,1.459609147730657,0.8033554012831542,0.3566153049468994,-0.970629096031189,0.169620618224144,-0.179359495639801,-0.1338114738464355,0.1722217798233032,2,0.1814588791709878,0.6546401696857467,0.3748037011860496,0.6309050921283297,0.6900086998939514,-0.7196897864341736,-0.07703784853219986,16.94908142089844,-43.10118865966797,-16.66464233398438,2
1596229595.991245,71,0,101928.1786775417,0.3292969192241723,1.446325816596892,0.805002815264421,0.4528962373733521,-0.7959476709365845,-0.1750113517045975,-0.07881659269332886,-0.06429404020309448,0.2605305910110474,2,0.1899101661357564,0.6487754504122873,0.3687816296187405,0.6379849575695415,0.6877471804618835,-0.7208325862884521,-0.08604908734560013,16.58634948730469,-43.20174407958984,-16.73617553710938,2
1596229596.010863,72,0,101928.2087715417,0.3010672100649063,1.436084949335187,0.7985933200144181,0.8116081953048706,-1.366907715797424,-0.3640078902244568,0.08789819478988647,0.05432784557342529,0.2650240659713745,2,0.1985673412710568,0.6432090840588423,0.3569381460279669,0.64764835071644,0.6913940906524658,-0.7163753509521484,-0.0937061682343483,16.31342315673828,-43.43227386474609,-16.2080078125,2
1596229596.053412,73,0,101928.2388665417,0.2520172674637252,1.404208450412095,0.791323972703208,1.433688521385193,-3.163300275802612,-0.4850821197032928,0.19382244348526,0.2533166408538818,0.2105090618133545,2,0.2170348072207776,0.6281868044017024,0.335478301652267,0.667631244796872,0.693173348903656,-0.7112845182418823,-0.1165544614195824,16.01484680175781,-43.69386291503906,-16.0697021484375,2
1596229596.078472,74,0,101928.2689605417,0.1708406827559902,1.343365935463618,0.7830001025894604,2.169287443161011,-4.642241954803467,-0.8359739780426025,0.3445538282394409,0.2832669019699097,0.07456731796264648,2,0.2485231180892142,0.5986049746996683,0.2983208200126305,0.7006519422041774,0.6905482411384583,-0.705409049987793,-0.1598166823387146,14.63805389404297,-44.30123901367188,-15.44381713867188,2
1596229596.113474,75,0,101928.2990545417,0.06079323993187646,1.277491157033923,0.7783953568193998,2.757041931152344,-4.940996646881104,-0.5564228892326355,0.4028890132904053,0.1981806755065918,0.1622722148895264,2,0.2877312362313846,0.5606057825865051,0.2486922901646788,0.7355841606592592,0.681632399559021,-0.7021377682685852,-0.2058637887239456,13.71071624755859,-44.90919494628906,-15.130859375,2
1596229596.146385,76,0,101928.3291485417,-0.06286834946616902,1.195551783872161,0.8038884055473848,3.226737976074219,-6.172141551971436,0.1552578806877136,0.05280518531799316,0.05798536539077759,0.5102603435516357,2,0.3394875855178452,0.5075320173007353,0.1961569592529455,0.7672561338884246,0.6456283926963806,-0.7200597524642944,-0.2543188631534576,11.86769104003906,-45.94401550292969,-12.95352172851562,2
1596229596.181112,77,0,101928.3592435417,-0.1848024885280975,1.083808665575088,0.8525546653731721,3.113154172897339,-7.231438159942627,0.5840814113616943,0.2983741760253906,0.0289490818977356,0.1844017505645752,2,0.3960633423263845,0.4349236414025219,0.1403761916020638,0.7964106641502342,0.5815598964691162,-0.7529639601707458,-0.307950496673584,10.19963073730469,-46.83142852783203,-11.52740478515625,2
1596229596.230252,78,0,101928.4194315417,-0.349911903515192,0.7576575740446361,1.016597969752906,2.76308274269104,-7.502421379089355,1.138018727302551,-0.201060950756073,0.3070301413536072,0.3551239967346191,2,0.5015178828644539,0.2394345245502501,0.03596952022985594,0.8305764620164131,0.3616586327552795,-0.8503226041793823,-0.3823018372058868,3.654449462890625,-49.07724761962891,-6.22894287109375,2
1596229596.24892,79,0,101928.4495265417,-0.4113055965178353,0.613684917071419,1.089954746753843,2.08875846862793,-5.725333690643311,0.5454333424568176,-0.4237256944179535,0.002701163291931152,0.4327589869499207,2,0.536517303635025,0.1519362502275331,-0.01318549309153932,0.8299943797701019,0.2663609683513641,-0.886605978012085,-0.3781291246414185,0.2814865112304688,-49.75910949707031,-1.81884765625,2
1596229596.290787,80,0,101928.4796205417,-0.4196422409870454,0.4829969837556773,1.133682016934532,0.8138615489006042,-2.944073438644409,0.7403911352157593,-0.6932860612869263,-0.2276550531387329,0.1510002017021179,2,0.5519745531011693,0.08873202565189947,-0.04500648358132175,0.8279041593312716,0.1966080963611603,-0.9059770107269287,-0.3749014437198639,-0.3592987060546875,-49.57277679443359,0.21820068359375,2
1596229596.316764,81,0,101928.5097145417,-0.4153872734979032,0.4331895557104024,1.16372755245948,0.6885828375816345,-0.6687475442886353,0.1184873878955841,-0.6722029447555542,0.07026344537734985,-0.3319835066795349,2,0.5622278045268527,0.0650039342418457,-0.05267582137749671,0.8227390737865721,0.1661941707134247,-0.9182853102684021,-0.3593487739562988,-1.378677368164062,-49.48333740234375,2.17938232421875,2
1596229596.349179,82,0,101928.5398085417,-0.4342500728508673,0.4639206720318875,1.170518655585672,0.1923092305660248,1.348716139793396,-0.1955621987581253,-0.4158163666725159,-0.1615152955055237,-0.402224063873291,2,0.5662783169085688,0.07131054273812598,-0.05074979868352619,0.819553558644011,0.1743626445531845,-0.9209528565406799,-0.3484873473644257,-1.300064086914062,-49.51947021484375,3.0274658203125,2
1596229596.384274,83,0,101928.5699035417,-0.459197509565736,0.5407753927544739,1.174923919730363,0.3941910862922668,2.103760242462158,-0.2972334623336792,-0.346950888633728,0.00360637903213501,-0.06951415538787842,2,0.5706948623738293,0.0949335530057405,-0.03839127173435242,0.8147521598248147,0.1985140442848206,-0.9226605296134949,-0.3305899798870087,-1.452217102050781,-49.65472412109375,3.234100341796875,2
1596229596.417032,84,0,101928.5999975417,-0.5086594337639048,0.6494245934620754,1.188477521595652,1.222411870956421,1.82056713104248,-0.05023078247904778,-0.01365658640861511,0.09373164176940918,0.246355414390564,2,0.580059811031298,0.1223395907392016,-0.02469736018792235,0.8049557644769799,0.2256078124046326,-0.9278020262718201,-0.2971272766590118,-1.062393188476562,-49.50215148925781,4.2664794921875,2
1596229596.452966,85,0,101928.6300915417,-0.5647683795772054,0.7317380238757092,1.224658675294619,1.031386613845825,0.4541449844837189,0.3859523832798004,0.04691144824028015,-0.3574423789978027,0.0512579083442688,2,0.5970510118913362,0.1316062803792152,-0.01543978195061391,0.7911836840292793,0.2266861647367477,-0.9406901001930237,-0.2524197399616241,-1.412757873535156,-49.50057983398438,5.563018798828125,2
1596229596.484699,86,0,101928.6902810417,-0.6778083625680312,0.8951143588691678,1.254085237839389,1.039984583854675,1.179079532623291,0.1642262935638428,0.1042965054512024,0.3357928991317749,0.07714664936065674,2,0.6153784538521938,0.1546498356565845,-0.00321224582885421,0.7729051970964417,0.2430128157138824,-0.9502648711204529,-0.1947855800390244,-1.881263732910156,-49.24147796630859,7.990570068359375,2
1596229596.531846,87,0,101928.7203750417,-0.7369609411416032,0.9692201066925029,1.287484461014743,1.034490346908569,0.3586253523826599,0.5373286008834839,-0.09566408395767212,-0.2657634019851685,-0.2895733118057251,2,0.6296541030327742,0.1563155454897945,0.005906190589649085,0.7609641969322753,0.2304633557796478,-0.9601349234580994,-0.1582023203372955,-2.60211181640625,-48.86534881591797,9.901580810546875,2
1596229596.552471,88,0,101928.7504690417,-0.8099529481087178,1.054739360663496,1.301402129767415,0.7628968954086304,0.4670991897583008,-0.3061779737472534,0.08866205811500549,0.07191681861877441,0.08957010507583618,2,0.6388701302131803,0.1617998963177861,0.009294516693153565,0.7520500310504384,0.2314872592687607,-0.9639323353767395,-0.1313315033912659,-3.086906433105469,-48.81668853759766,10.74093627929688,2
1596229596.592544,89,0,101928.7805630417,-0.894587771978492,1.142963313391636,1.307234561097698,0.5474543571472168,0.01784765720367432,0.08528736978769302,-0.07290863990783691,-0.06423771381378174,0.2597914338111877,2,0.6468525358212021,0.1659419107371172,0.007716151931156656,0.744302039627408,0.2370393872261047,-0.965468168258667,-0.1080901548266411,-2.705757141113281,-48.17096710205078,12.14291381835938,2
1596229596.620396,90,0,101928.8106580417,-0.9369367070080492,1.18213853890546,1.317816812517159,0.5082077980041504,-0.05815815553069115,0.1587448567152023,0.1093989908695221,0.001779437065124512,-0.05595099925994873,2,0.6525473804821091,0.1635809516595438,0.007987189720135346,0.7398373689804369,0.2316225618124008,-0.9681710004806519,-0.09484637528657913,-2.873748779296875,-48.01685333251953,12.86404418945312,2
1596229596.655127,91,0,101928.8407520417,-0.9780925376750464,1.216426342244178,1.322625030724183,0.1913703829050064,-0.2759131491184235,-0.1221979558467865,-0.06093177199363708,-0.04590165615081787,0.09219175577163696,2,0.656782855291965,0.1613046790874486,0.005531468184114874,0.7366047383517875,0.2303696423768997,-0.9693632125854492,-0.08523416519165039,-2.993621826171875,-47.915771484375,13.69320678710938,2
1596229596.687958,92,0,101928.8708460417,-1.007522185044891,1.243967734203499,1.318167106642936,0.2533610761165619,0.1911899000406265,-0.225575789809227,0.0007487833499908447,0.01286983489990234,0.2572253942489624,2,0.658227153361949,0.1631402790318221,0.002333822630384341,0.7349264673651125,0.2367198467254639,-0.9682586193084717,-0.0802445262670517,-2.790794372558594,-47.79579925537109,13.99417114257812,2
1596229596.723123,93,0,101928.9009410417,-1.026790307339746,1.26448488698218,1.319152916117369,0.01497325766831636,-0.06063418835401535,0.1531186550855637,0.05338266491889954,-0.02017587423324585,0.06704407930374146,2,0.6599683389128204,0.1640124946811132,0.002341994856320806,0.7331687273993432,0.2374063730239868,-0.9685045480728149,-0.07508338987827301,-2.641059875488281,-47.95092010498047,14.17388916015625,2
1596229596.768331,94,0,101928.9611290417,-1.018911964512633,1.247458404987101,1.31503795547113,-0.2149010002613068,-0.07051791995763779,-0.2088340073823929,-0.1273213326931,-0.01150256395339966,0.2374960780143738,2,0.6585433852910911,0.1616495916163037,-0.00171108494938943,0.7349742900359406,0.2398702353239059,-0.967471718788147,-0.08038003742694855,-2.408660888671875,-47.71756744384766,14.20748901367188,2
1596229596.790609,95,0,101928.9912230417,-0.9968040706217327,1.225114035891776,1.30784868216217,-0.2485342174768448,-0.05468717962503433,-0.08561862260103226,-0.02159151434898376,0.02956724166870117,0.1417155861854553,2,0.6553019244162075,0.1629188248791202,-0.003219944050923906,0.7375815191575673,0.2445518970489502,-0.9656280279159546,-0.08807368576526642,-2.149208068847656,-47.94953155517578,13.7279052734375,2
1596229596.832325,96,0,101929.0213180417,-0.9682189063473894,1.193752953274042,1.303675326582395,-0.3326164484024048,-0.1432932019233704,-0.06061709299683571,0.05742886662483215,-0.05827170610427856,0.02528864145278931,2,0.6520591999505602,0.1619506747938118,-0.004229118634690832,0.7406571659360424,0.2454151213169098,-0.9645348191261292,-0.09718155860900879,-2.008506774902344,-47.99417877197266,13.44989013671875,2
1596229596.858438,97,0,101929.0514120417,-0.9318447623131585,1.153027244102933,1.29513925389207,-0.463891863822937,-0.2527022957801819,-0.1556072533130646,0.1410647630691528,-0.02583062648773193,-0.05128425359725952,2,0.6471466875745774,0.1612035570063633,-0.006602688963737169,0.7450979323202633,0.24877068400383,-0.9622465372085571,-0.1104291528463364,-1.964530944824219,-48.25929260253906,12.66830444335938,2
1596229596.891021,98,0,101929.0815060417,-0.8935519867818047,1.105103683943071,1.290134154188856,-0.3128227889537811,-0.4639471173286438,0.2015633881092072,0.2166218459606171,0.03938144445419312,-0.08499866724014282,2,0.6427487660338564,0.1571101354139406,-0.009267032104377626,0.749736267694966,0.2474950850009918,-0.9608722329139709,-0.1243808567523956,-1.821388244628906,-48.36622619628906,12.38818359375,2
1596229596.92632,99,0,101929.1116000417,-0.8476638936356128,1.04315735083714,1.293443939864839,-0.287374883890152,-0.7435224056243896,0.2969886362552643,0.09985256195068359,-0.01297885179519653,-0.06228965520858765,2,0.6397547172071366,0.1475903116090016,-0.0109005430671551,0.7541963779212842,0.2365715056657791,-0.961783766746521,-0.1378619968891144,-1.980644226074219,-48.23930358886719,11.86477661132812,2
1596229596.958683,100,0,101929.1416950417,-0.8176994718828838,0.9943540777118085,1.295102753232708,-0.2107830494642258,-0.4613059461116791,0.1087316572666168,0.03054964542388916,0.07500433921813965,-0.0009378790855407715,2,0.6377305700474484,0.1382577852179601,-0.01468985202486522,0.7576072455824019,0.2282265424728394,-0.9622366428375244,-0.1483690142631531,-1.837379455566406,-48.43360900878906,11.51205444335938,2
1596229597.013618,101,0,101929.1717890417,-0.7817668342868521,0.9518902896317475,1.296230671803753,-0.2188371568918228,-0.1248942688107491,0.3909289836883545,0.03905871510505676,0.03883117437362671,0.113787829875946,2,0.6352880186227223,0.1332750255434703,-0.01425500860761403,0.7605548167470697,0.2208379954099655,-0.9625430703163147,-0.1572937965393066,-2.003952026367188,-48.35439300537109,11.15631103515625,2
1596229597.026518,102,0,101929.2319780417,-0.6924485187308211,0.8568076687912868,1.300261827979114,-0.3518957793712616,0.147982582449913,-0.108700767159462,-0.2056502997875214,0.03388822078704834,0.1297534704208374,2,0.6301330842810849,0.1242116621092657,-0.009183424038449572,0.7664329900211606,0.2019733935594559,-0.9636281728744507,-0.1750075221061707,-3.010894775390625,-48.49667358398438,10.51812744140625,2
1596229597.072816,103,0,101929.2620720417,-0.6695089414087265,0.8468048846108148,1.292382630065246,-0.287182629108429,0.5241645574569702,0.1480994820594788,-0.002683877944946289,0.01057553291320801,0.06751561164855957,2,0.6262738999573251,0.1294593260826823,-0.005467481104341698,0.7687596798464327,0.2058945000171661,-0.9614925980567932,-0.1820425689220428,-2.934791564941406,-48.56497955322266,10.14801025390625,2
1596229597.094286,104,0,101929.2921660417,-0.6236032655784701,0.8150899946762425,1.29440665042674,-0.2469409704208374,0.2732557952404022,0.3354684710502625,0.06998312473297119,0.01901102066040039,-0.1860427260398865,2,0.6238841790029213,0.1311342572745131,0.002771635542537676,0.7704314564207226,0.198601558804512,-0.9620469212532043,-0.1871446818113327,-3.529792785644531,-48.67975616455078,9.564422607421875,2
1596229597.129604,105,0,101929.3222600417,-0.5902940600089123,0.792090076104522,1.291404672255657,-0.3129151463508606,0.2323069870471954,0.01950014568865299,0.02696600556373596,-0.02459383010864258,0.07882964611053467,2,0.6207958910319417,0.1332940737507923,0.007767573371179226,0.772518512952024,0.1963001191616058,-0.9612233638763428,-0.193690299987793,-3.904464721679688,-49.01363372802734,9.142242431640625,2
1596229597.162223,106,0,101929.3523550417,-0.5703263767013429,0.7747907812423308,1.286774037072759,-0.1817770451307297,0.07168731093406677,0.01103849709033966,-0.1364281177520752,0.0589408278465271,-0.1037931442260742,2,0.6180482803650855,0.1337855082299103,0.009088043669343404,0.7746194090346786,0.1960320025682449,-0.9599360823631287,-0.200235515832901,-4.14556884765625,-48.81334686279297,8.810333251953125,2
1596229597.196778,107,0,101929.3824490417,-0.5611060128125811,0.7720623120238722,1.285377870447804,-0.03233002871274948,0.2542225122451782,0.08951839059591293,0.09692868590354919,0.05901670455932617,-0.1072081327438354,2,0.6169880906878876,0.1358712574366663,0.01150736550420445,0.7750691549100157,0.196419432759285,-0.9595439434051514,-0.2017294019460678,-4.140357971191406,-48.83705139160156,8.621368408203125,2
1596229597.229673,108,0,101929.4125430417,-0.5454021614786725,0.7579896906981467,1.285065875623375,-0.1734720766544342,-0.1931349486112595,0.01855870522558689,-0.01120844483375549,-0.05710017681121826,-0.1205188632011414,2,0.6159082803174124,0.1353198930910883,0.01319070246150766,0.7759971139546809,0.1937671601772308,-0.9594560265541077,-0.2046910375356674,-4.201850891113281,-48.77224731445312,8.55133056640625,2
1596229597.264608,109,0,101929.4426380417,-0.5456122832288816,0.7523515189585142,1.280959757649833,-0.01379549689590931,-0.1653302907943726,-0.1409755349159241,0.0002229809761047363,0.06021881103515625,0.04621732234954834,2,0.6146052791733907,0.133913895869655,0.01048296574527435,0.777314317776905,0.1953006088733673,-0.9582905769348145,-0.2086548358201981,-4.5911865234375,-48.97898101806641,8.282684326171875,2
1596229597.308004,110,0,101929.5028260417,-0.5506850372969879,0.7526393344199755,1.276073840650129,0.05378705263137817,-0.1148551926016808,-0.1978957802057266,-0.03304699063301086,-0.01542693376541138,0.01635706424713135,2,0.6133325768520176,0.1334776722097501,0.007537907778811415,0.778428002264909,0.1985590308904648,-0.9568827748298645,-0.2120137214660645,-3.951637268066406,-48.96566009521484,8.25616455078125,2
1596229597.332423,111,0,101929.5329200417,-0.5639736038442497,0.7603090987617105,1.271620739474455,-0.02229329571127892,-0.2091522216796875,-0.1235672757029533,-0.1025272011756897,0.03150111436843872,0.03564953804016113,2,0.6127325737061632,0.1333183903598577,0.003741005384412965,0.7789550828406463,0.2031136006116867,-0.9555798172950745,-0.2135699987411499,-3.604179382324219,-49.05558776855469,8.245330810546875,2
1596229597.371445,112,0,101929.5630150417,-0.5646123295581864,0.7565675890616762,1.271042865609079,-0.07765300571918488,-0.0105226244777441,0.1145061701536179,0.01359191536903381,-0.005949139595031738,-0.04340541362762451,2,0.6125906452872021,0.1317863019450546,0.002218939219261029,0.7793332081142865,0.2026922851800919,-0.9554092884063721,-0.2147301435470581,-3.642486572265625,-49.03285217285156,8.11419677734375,2
1596229597.400379,113,0,101929.5931090417,-0.5550597904962697,0.7494113706683994,1.272314521102385,-0.006261611357331276,-0.01524819061160088,-0.06653095036745071,-0.1207564175128937,0.002701103687286377,-0.08648288249969482,2,0.6123914753844444,0.1316580476866845,0.004027815760137721,0.7795042017416787,0.2003228068351746,-0.955784022808075,-0.2152856737375259,-3.6617431640625,-48.92373657226562,8.173431396484375,2
1596229597.432585,114,0,101929.6232030417,-0.5659355579034513,0.7556750199847075,1.266810141945968,-0.05979433283209801,-0.08334290236234665,-0.215656191110611,-0.1025015711784363,0.009865820407867432,0.02859026193618774,2,0.6112864209093948,0.1319198445690054,0.0005005995640695038,0.7803370019586983,0.2052718549966812,-0.954150915145874,-0.2178521305322647,-3.3546142578125,-49.33524322509766,8.095184326171875,2
1596229597.470773,115,0,101929.6532980417,-0.5763216748910859,0.7621176267894426,1.266837968105301,0.1264479160308838,-0.2383377850055695,0.02835089154541492,0.09121310710906982,0.04185646772384644,-0.08352172374725342,2,0.6119805203690653,0.1312507893599732,-0.001574299907732113,0.7799043084356088,0.2066529989242554,-0.9541592597961426,-0.216506153345108,-3.097358703613281,-49.15264129638672,8.049591064453125,2
1596229597.500309,116,0,101929.6833917917,-0.5729334545807027,0.7484022477828607,1.269166347866635,0.01256165653467178,-0.3184091448783875,0.01203267835080624,0.02309656143188477,-0.04510200023651123,-0.02036988735198975,2,0.6125074478178216,0.1264474231729047,-0.003937962964141006,0.7802757521476975,0.2021517753601074,-0.9548535346984863,-0.2176913470029831,-3.157737731933594,-49.19768524169922,8.406494140625,2
1596229597.548356,117,0,101929.7134857917,-0.5767732519773136,0.7436961371438454,1.267326689033285,-0.01802068389952183,-0.2073367238044739,-0.2035273015499115,-0.08125483989715576,0.05907911062240601,0.07235509157180786,2,0.6121290756415346,0.1238210504909988,-0.007280324287153861,0.7809695255577749,0.2023139297962189,-0.9543054103851318,-0.2199326902627945,-3.080436706542969,-49.13031768798828,8.265716552734375,2
1596229597.569846,118,0,101929.7736747917,-0.5763015116617867,0.7466951900121835,1.264147495680789,-0.1637766063213348,-0.07358992099761963,0.2405132353305817,0.04317274689674377,-0.03087741136550903,-0.01468980312347412,2,0.6110630374221266,0.1258042978681541,-0.006875226676119506,0.7814908864681771,0.2050322145223618,-0.9533505439758301,-0.2215504795312881,-2.66192626953125,-49.20404052734375,8.13323974609375,2
1596229597.609817,119,0,101929.8037687917,-0.5603529763465658,0.7304754291861516,1.263970055966537,-0.1241063997149467,0.05119996517896652,-0.05010291561484337,-0.05381324887275696,0.04911565780639648,0.02413266897201538,2,0.609956092614408,0.1243672268989819,-0.005628625540471333,0.7825948377270363,0.2015247344970703,-0.953296959400177,-0.2249727100133896,-2.91583251953125,-49.17106628417969,8.06201171875,2
1596229597.637307,120,0,101929.8338627917,-0.5494478274349782,0.7266225096203492,1.257616867531352,-0.3274290859699249,0.2898038625717163,0.02569785341620445,-0.03355357050895691,-0.009198665618896484,0.05757582187652588,2,0.6071371709311877,0.1274743983039164,-0.003887579421677834,0.7842955560597753,0.2046757936477661,-0.9513588547706604,-0.2302694618701935,-2.831596374511719,-49.05746459960938,7.723785400390625,2
1596229597.670686,121,0,101929.8639577917,-0.5406601225909174,0.7241242455170807,1.255043961155655,0.04573275521397591,0.05992377921938896,-0.07571052014827728,0.0378054678440094,0.01977962255477905,-0.07167112827301025,2,0.6057034271349754,0.1296791175310093,-0.001743423317296322,0.7850501938386558,0.2057212293148041,-0.9505630135536194,-0.2326133698225021,-3.017677307128906,-49.34091949462891,7.390655517578125,2
1596229597.703786,122,0,101929.8940517917,-0.5576230587319155,0.7371464808752213,1.253892803442187,0.09560053795576096,-0.1791348904371262,-0.2048989236354828,-0.02328813076019287,0.0808640718460083,0.003059983253479004,2,0.606438918017403,0.129882500780893,-0.004698809620893751,0.7844363808504304,0.209468200802803,-0.9502049088478088,-0.2307247519493103,-2.977531433105469,-49.22953796386719,7.41015625,2
1596229597.738584,123,0,101929.9241457917,-0.5713396794105101,0.7478472205523033,1.251665873226564,-0.0004643267020583153,0.08024659752845764,-0.06382400542497635,0.002687186002731323,-0.0292622447013855,-0.003024399280548096,2,0.6066221541881375,0.1303806606885834,-0.007316436311510466,0.7841919607175438,0.2133635580539703,-0.9495086073875427,-0.2300208956003189,-2.5262451171875,-49.35763549804688,7.605804443359375,2
1596229597.784901,124,0,101929.9542397917,-0.5740547757923987,0.756197648031036,1.253490013551021,0.1170938089489937,0.1911945343017578,0.0562368668615818,-0.0009154379367828369,-0.01635479927062988,-0.0109216570854187,2,0.6074311735800035,0.1324462707132835,-0.005445081148543363,0.7832341504735691,0.2140879034996033,-0.9500793218612671,-0.2269707024097443,-2.590766906738281,-49.33744049072266,7.683746337890625,2
1596229597.806244,125,0,101929.9843347917,-0.5787593266937813,0.7643487510134522,1.256050011939586,0.07886632531881332,0.1117538660764694,-0.03303627297282219,-0.0002982616424560547,0.02970844507217407,0.02794265747070312,2,0.60860721401019,0.1336650834926155,-0.004241197851002687,0.7821208181312559,0.214246928691864,-0.950874924659729,-0.2234618067741394,-2.634170532226562,-49.31461334228516,7.6754150390625,2
1596229597.854324,126,0,101930.0445227917,-0.5823275021326442,0.7717609338821851,1.254697394976282,0.01595253311097622,-0.07272753119468689,0.05205092579126358,0.09114557504653931,0.03555452823638916,-0.04997897148132324,2,0.6084186386509401,0.1357654577763647,-0.003682999217361094,0.781908479947674,0.2167939394712448,-0.9504553079605103,-0.222789004445076,-2.755142211914062,-49.09056854248047,7.80975341796875,2
1596229597.874082,127,0,101930.0746177917,-0.5784070667141124,0.7645270302136628,1.257111853449858,-0.0107745323330164,-0.1361250728368759,0.1251469552516937,0.06969055533409119,-0.01314157247543335,0.01776599884033203,2,0.6089328810048124,0.1336167336413878,-0.003812992289319361,0.7818777050374871,0.2135875970125198,-0.9512031078338623,-0.2226946353912354,-2.940254211425781,-49.29530334472656,7.958984375,2
1596229597.908716,128,0,101930.1047117917,-0.5690921975150993,0.7503039348613991,1.258555967519801,-0.05019780248403549,-0.137279748916626,0.06989918649196625,-0.0006831884384155273,0.04217928647994995,-0.01234710216522217,2,0.6087651293030389,0.1305856103207999,-0.004181061293680177,0.7825183034911274,0.2094618231058121,-0.9516477584838867,-0.2247048318386078,-2.9505615234375,-49.06834411621094,7.825347900390625,2
1596229597.941802,129,0,101930.1348057917,-0.5624471157815596,0.7411155253457318,1.258498738596817,0.03026125952601433,-0.1425857245922089,0.0577671006321907,0.06914502382278442,0.004426121711730957,-0.03693109750747681,2,0.6082951995039472,0.129022890478931,-0.004388245057928286,0.7831415788241505,0.2074250727891922,-0.951630175113678,-0.2266600877046585,-2.977516174316406,-49.21073150634766,7.61370849609375,2
1596229597.974191,130,0,101930.1648997917,-0.5698997371263129,0.7395409595809666,1.26224479089359,0.06431177258491516,-0.3280833065509796,-0.032998938113451,-0.01108023524284363,-0.007338643074035645,-0.04331427812576294,2,0.6100077630675882,0.1253592682357444,-0.006971557612910295,0.7823854004045282,0.2046639323234558,-0.9527744650840759,-0.224351167678833,-2.875274658203125,-49.220458984375,7.82275390625,2
1596229598.009454,131,0,101930.1949947917,-0.5709974388855467,0.7309766235017292,1.258258651380688,-0.1056356355547905,-0.2405969053506851,-0.1316364258527756,-0.09183239936828613,0.02424854040145874,-0.01494020223617554,2,0.608714290013226,0.1224993563107757,-0.01087452396609834,0.7838000721576475,0.2052689641714096,-0.951556384563446,-0.2289216369390488,-2.6243896484375,-49.27244567871094,7.77880859375,2
1596229598.042049,132,0,101930.2250887917,-0.5762143727585171,0.7364794691344031,1.252663553171456,-0.1180224269628525,0.2391675859689713,-0.1590328365564346,-0.1214302182197571,0.005263030529022217,0.09457927942276001,2,0.6072075673134082,0.1242344924243941,-0.01246035078851676,0.7846716608599765,0.21009860932827,-0.9498211145401001,-0.2317295223474503,-2.476951599121094,-49.27587890625,7.857391357421875,2
1596229598.088139,133,0,101930.2551827917,-0.5739170453515918,0.7443143512457967,1.248323407535154,-0.0362652949988842,0.2737383246421814,0.006929827854037285,0.01287075877189636,0.01207232475280762,0.0463983416557312,2,0.6056638339353022,0.1289117291000249,-0.01012926476620984,0.7851436122727429,0.2146982997655869,-0.9484546184539795,-0.2331061661243439,-2.095436096191406,-49.35980987548828,7.664276123046875,2
1596229598.110026,134,0,101930.3153717917,-0.5742854187292893,0.7491889086183467,1.247847346184607,-0.0751468688249588,-0.002731587504968047,-0.0327843576669693,0.03388658165931702,-0.000409543514251709,-0.02108746767044067,2,0.6055528513583176,0.130813098834724,-0.008902031167449309,0.7849295430357739,0.2161394357681274,-0.9483036398887634,-0.2323873490095139,-2.394393920898438,-49.32098388671875,7.453826904296875,2
1596229598.149208,135,0,101930.3454657917,-0.5745356180533726,0.7484529854354057,1.24735138022819,0.05203470587730408,-0.05385374277830124,0.0101263765245676,-0.004792988300323486,0.004755973815917969,-0.06635308265686035,2,0.6054010869390587,0.1305524211939205,-0.009331896174668119,0.7850850836132479,0.2162885963916779,-0.9481461048126221,-0.232891172170639,-2.417594909667969,-49.36428070068359,7.40240478515625,2
1596229598.177511,136,0,101930.3755607917,-0.5749966113010372,0.7472275477817131,1.248919560370745,0.04398711025714874,-0.08925257623195648,0.06064519658684731,0.0235590934753418,0.01813817024230957,-0.0007685422897338867,2,0.6059458503879964,0.1296034928712843,-0.009540182717598433,0.7848195182323221,0.2149923741817474,-0.9486433863639832,-0.2320651262998581,-2.491065979003906,-49.30982971191406,7.54254150390625,2
1596229598.212505,137,0,101930.4056547917,-0.5736030670195381,0.7438996994434783,1.25085478234976,-0.04748596996068954,-0.008498995564877987,0.0465514250099659,-0.01216232776641846,-0.00199514627456665,0.05542457103729248,2,0.6064827156376216,0.1283154009704149,-0.009578598147541528,0.78461590364284,0.2129751145839691,-0.9492537975311279,-0.2314277440309525,-2.38037109375,-49.37760162353516,7.7081298828125,2
1596229598.245414,138,0,101930.4357487917,-0.5626687067516158,0.7343021752586065,1.24858203622389,-0.1280688345432281,0.05791711062192917,0.007924147881567478,-0.02607560157775879,-0.007025182247161865,0.06923919916152954,2,0.6049795627498107,0.1283304316943294,-0.008685857592706736,0.7857834611644362,0.2121893912553787,-0.9485365748405457,-0.2350620627403259,-2.586654663085938,-49.160888671875,7.38134765625,2
1596229598.28022,139,0,101930.4658427917,-0.5575650999033823,0.731512926622753,1.247075695761491,-0.0282449759542942,0.05793454870581627,0.01770097203552723,-0.007959753274917603,0.02207720279693604,-0.0008777379989624023,2,0.6041348278169204,0.1290861136386699,-0.007847099384245326,0.7863181560509673,0.2124869227409363,-0.9480584859848022,-0.2367157638072968,-2.545989990234375,-49.112548828125,7.384979248046875,2
1596229598.329443,140,0,101930.4959377917,-0.5581591591514423,0.7326821260557151,1.247098342264949,-0.007669242098927498,-0.007357820402830839,-0.03234757110476494,0.0003801584243774414,0.01163220405578613,-0.01616007089614868,2,0.6041852017959477,0.1293617484072142,-0.007722715371935751,0.7862355062061179,0.2127494961023331,-0.9480656385421753,-0.2364515662193298,-2.44281005859375,-49.20591735839844,7.227203369140625,2
1596229598.348249,141,0,101930.5260317917,-0.5556077747541035,0.730725057297031,1.246530448295842,-0.02838402800261974,0.08485184609889984,0.06739817559719086,0.04795563220977783,-0.0002847909927368164,-0.02230614423751831,2,0.603822112756068,0.1294789256081552,-0.007432349166771046,0.7864978174719093,0.212645411491394,-0.9478848576545715,-0.2372681349515915,-2.592544555664062,-49.20439910888672,7.237518310546875,2
1596229598.38722,142,0,101930.5862207917,-0.5404708647965974,0.7181910351055075,1.248811667825387,0.05064572766423225,0.01337781734764576,0.03629060834646225,-0.002930551767349243,0.01322078704833984,0.003535985946655273,2,0.6035765264422557,0.1286563355633783,-0.0047774093053084,0.7868418402857761,0.2082314342260361,-0.9486092329025269,-0.2382858544588089,-3.000640869140625,-49.25914001464844,7.1630859375,2
1596229598.415623,143,0,101930.6163147917,-0.5391640848796319,0.7176908850361906,1.249770874661199,-0.009726057760417461,-0.004820561502128839,0.04115308821201324,0.02961117029190063,0.003823339939117432,0.001726150512695312,2,0.6038160679852012,0.1286619689408831,-0.004212616135628677,0.7866603784209778,0.207513839006424,-0.9489123225212097,-0.2377045005559921,-2.960029602050781,-49.16117095947266,7.097198486328125,2
1596229598.448278,144,0,101930.6464087917,-0.5414477025230572,0.7185876722094079,1.249838374133349,0.01378901489078999,-0.07877417653799057,-0.08942892402410507,-0.03681555390357971,0.0164942741394043,-0.01412087678909302,2,0.6039876692164078,0.128311609629434,-0.004825781677402663,0.7865823250769355,0.2076847106218338,-0.9489336609840393,-0.2374700456857681,-2.680671691894531,-49.42807006835938,7.236602783203125,2
1596229598.483438,145,0,101930.6765037917,-0.5486355330573274,0.7235164994467411,1.247415041964009,0.01463576499372721,-0.01062531769275665,-0.08820822089910507,-0.02493822574615479,0.01841741800308228,0.01830762624740601,2,0.6036448035886557,0.1285684766711006,-0.006677358692721624,0.7867899670904531,0.2103742808103561,-0.9481663703918457,-0.2381661981344223,-2.72613525390625,-49.32379150390625,7.34832763671875,2
1596229598.516062,146,0,101930.706597375,-0.5555849242088113,0.7306574364541674,1.247494810255682,-0.003957653418183327,0.0001119901426136494,-0.02029278501868248,-0.01166677474975586,-0.006123363971710205,0.02795261144638062,2,0.6041443808995105,0.1292622510181225,-0.00723719484229729,0.7862877833201105,0.2120192795991898,-0.9481917023658752,-0.2366016805171967,-2.588981628417969,-49.21730041503906,7.193878173828125,2
1596229598.552345,147,0,101930.736691375,-0.5534521768131447,0.7273030816959298,1.246674313425595,-0.005994392558932304,-0.009109527803957462,0.003638141322880983,-0.01816034317016602,0.002477526664733887,0.003473341464996338,2,0.6037184581196494,0.1287544914526068,-0.007586859650779598,0.7866948423618197,0.211741641163826,-0.9479306936264038,-0.2378926128149033,-2.425491333007812,-49.32200622558594,7.26641845703125,2
1596229598.583758,148,0,101930.766785375,-0.5515124967847137,0.726612787330558,1.24719740430329,-0.01831538788974285,0.08019214123487473,0.06151708215475082,0.06421864032745361,0.02962392568588257,-0.00261378288269043,2,0.6037671566666556,0.1289621317995089,-0.00692071451887305,0.7866295658900744,0.2112478464841843,-0.9480971693992615,-0.237667977809906,-2.492118835449219,-49.16142272949219,7.14385986328125,2
1596229598.629096,149,0,101930.796880375,-0.5412450428738833,0.7184919069206879,1.248401962251642,-0.07232554256916046,-0.04434274882078171,0.1298308670520782,0.06065657734870911,-0.005297839641571045,0.006714344024658203,2,0.6034882634985075,0.1286232566289125,-0.0050775255208107,0.7869131381609329,0.2085591107606888,-0.9484795331954956,-0.2385159432888031,-2.61273193359375,-49.05000305175781,7.136444091796875,2
1596229598.65404,150,0,101930.857068375,-0.5371150946197568,0.708477484095848,1.248617113982837,0.144246444106102,-0.1128407269716263,-0.05780425295233727,-0.001917600631713867,0.02640241384506226,-0.03459709882736206,2,0.6032697220186278,0.125884500492409,-0.006428081802828944,0.7875134572945097,0.2060272097587585,-0.9485476613044739,-0.2404374629259109,-2.941886901855469,-49.29488372802734,7.138031005859375,2
1596229598.687402,151,0,101930.887163375,-0.5369747999011742,0.7068525421630028,1.247650281834315,-0.168736144900322,-0.0164202656596899,0.03438455238938332,0.0491294264793396,0.001067042350769043,0.05099767446517944,2,0.6029265496976259,0.1254788600601525,-0.007064213660640972,0.7878355174701451,0.2062318027019501,-0.9482410550117493,-0.2414692640304565,-2.748886108398438,-49.21587371826172,7.119476318359375,2
1596229598.720879,152,0,101930.917257375,-0.5229584310365994,0.6919867613972832,1.247749277053124,0.005373125895857811,-0.05159695073962212,0.1257437914609909,-0.02681592106819153,0.003998100757598877,-0.0383879542350769,2,0.6020381494025963,0.123822312574469,-0.005997423984295425,0.788785348382636,0.2025598138570786,-0.9482725262641907,-0.2444362044334412,-2.7987060546875,-49.16622161865234,7.23004150390625,2
