loggingTime,loggingSample,identifierForVendor,motionTimestamp_sinceReboot,motionYaw,motionRoll,motionPitch,motionRotationRateX,motionRotationRateY,motionRotationRateZ,motionUserAccelerationX,motionUserAccelerationY,motionUserAccelerationZ,motionAttitudeReferenceFrame,motionQuaternionX,motionQuaternionY,motionQuaternionZ,motionQuaternionW,motionGravityX,motionGravityY,motionGravityZ,motionMagneticFieldX,motionMagneticFieldY,motionMagneticFieldZ,motionMagneticFieldCalibrationAccuracy
1596229551.491075,1,0,101883.668927,-0.8739962981109916,0.9458941980521177,1.280566362914099,0.1213365346193314,0.04840660840272903,-0.04871676489710808,-0.02397730946540833,0.008058607578277588,-0.007215499877929688,2,0.6364613419438474,0.1058720891046048,-0.0555777925867203,0.7619837228038668,0.2320918440818787,-0.9581781029701233,-0.167416125535965,0.4988861083984375,-48.26123809814453,11.31002807617188,2
1596229551.525969,2,0,101883.729116,-0.8733773700647884,0.9438282874804748,1.278879327244208,-0.04319218918681145,-0.04869996383786201,0.04666677862405777,0.03959232568740845,0.004714131355285645,-0.01983743906021118,2,0.6359217429990964,0.1057442498978972,-0.05646782187144445,0.7623864496315298,0.2330541908740997,-0.9576939344406128,-0.1688433736562729,0.5510025024414062,-48.38996887207031,11.23779296875,2
1596229551.558757,3,0,101883.759211,-0.8703729027680293,0.9404472060996697,1.27929871841082,0.01012950483709574,0.03001970052719116,0.01118047721683979,-0.005657196044921875,0.03057795763015747,-0.02425402402877808,2,0.6357797487246641,0.105295731240534,-0.05628111688088167,0.7625808161496559,0.2321577966213226,-0.9578145742416382,-0.1693938374519348,0.4835968017578125,-48.46919250488281,11.05892944335938,2
1596229551.591343,4,0,101883.789306,-0.8723955281753163,0.9436535474908897,1.279595584453601,0.03557275980710983,0.02831771224737167,-0.003268611151725054,-0.01708123087882996,0.01578730344772339,-0.03230452537536621,2,0.6360557594748981,0.1057936337865562,-0.0559503026174642,0.7623059669429325,0.2324692606925964,-0.957899808883667,-0.1684815585613251,0.6499710083007812,-48.2139892578125,11.33697509765625,2
1596229551.626562,5,0,101883.8194,-0.8745480041604569,0.9454952616529694,1.280698893338155,0.03197320178151131,-0.05799047648906708,0.05745707079768181,0.0416853129863739,-0.002309739589691162,-0.03132075071334839,2,0.6365145440562672,0.1055082191165141,-0.05587816581247013,0.7619678373677058,0.2319222688674927,-0.9582160115242004,-0.167434498667717,0.4905776977539062,-48.22464752197266,11.25595092773438,2
1596229551.659136,6,0,101883.849495,-0.8721004787676307,0.9412595632470623,1.283174320249278,0.03121342323720455,-0.03686447441577911,0.1168293431401253,0.02346017956733704,0.01563179492950439,-0.002887964248657227,2,0.6369268480290876,0.1039953364340806,-0.0556069593074931,0.7618511371550754,0.2292930632829666,-0.9589211344718933,-0.167018324136734,0.3559799194335938,-48.29283905029297,11.12994384765625,2
1596229551.709661,7,0,101883.87959,-0.8695098770739602,0.9382522542433502,1.287308254496748,0.1064786612987518,-0.01607318222522736,0.08691803365945816,-0.03772944211959839,0.01090657711029053,-0.006809353828430176,2,0.6378115344990167,0.1025448558048852,-0.05443362050627476,0.7613921733728026,0.2255904823541641,-0.9600856304168701,-0.1653620004653931,0.1853866577148438,-48.40624237060547,11.303466796875,2
1596229551.726767,8,0,101883.909685,-0.8784896970920623,0.9460634028773455,1.288935942870905,0.07896935194730759,-0.0777217298746109,-0.09495735168457031,0.0288737416267395,0.02543443441390991,-0.0559430718421936,2,0.6389163632375247,0.1022040767575468,-0.05490496605904677,0.7604772130805045,0.2256071120500565,-0.9605396389961243,-0.1626804172992706,0.2484664916992188,-48.20068359375,11.6051025390625,2
1596229551.769254,9,0,101883.939779,-0.8889919993781162,0.9520254870586985,1.285602567271194,0.08162686228752136,-0.3133701682090759,-0.1098229512572289,0.03076165914535522,-0.01217728853225708,-0.03075438737869263,2,0.638744125189769,0.1020367392169757,-0.05792502670994643,0.7604203945595533,0.229180172085762,-0.9596071839332581,-0.1631888896226883,0.243743896484375,-48.5054931640625,11.47589111328125,2
1596229551.794477,10,0,101883.999969,-0.9110585541824205,0.9643296129953853,1.288174141351285,0.1248690634965897,0.2106039524078369,0.2002368122339249,-0.14945188164711,0.01710212230682373,0.02670204639434814,2,0.6408880326619091,0.09893308037405563,-0.0616446297174631,0.7587322714687903,0.2291420549154282,-0.9603275060653687,-0.1589495539665222,0.9269638061523438,-48.34621429443359,11.89065551757812,2
1596229551.829545,11,0,101884.030064,-0.9240231159890618,0.9858217623289987,1.290953475754719,0.1189934238791466,0.3328703641891479,-0.3245300352573395,-0.2280879616737366,0.04234349727630615,-0.03702414035797119,2,0.6428937978038536,0.1021299819637032,-0.05886568555990962,0.7568301028719981,0.2302788645029068,-0.961098849773407,-0.1525140702724457,0.4009857177734375,-48.35335540771484,12.22671508789062,2
1596229551.862349,12,0,101884.060158,-0.9670217362051511,1.036532749379012,1.280765612249186,0.2744210660457611,0.2263705730438232,-0.4953349232673645,-0.006278455257415771,0.04403460025787354,-0.05686885118484497,2,0.6442058028166429,0.110394415733027,-0.06176840668430084,0.7543186216672283,0.246128261089325,-0.9582350850105286,-0.1456239074468613,0.6981353759765625,-48.11003875732422,12.29190063476562,2
1596229551.897314,13,0,101884.090253,-1.008433414021042,1.080314003229436,1.276521086027705,0.1659302860498428,0.05563265085220337,-0.1969703286886215,0.01835396885871887,-0.002385377883911133,-0.06217092275619507,2,0.6469278352561271,0.114765122344785,-0.06449789130016415,0.751101414416693,0.2558514475822449,-0.9570125937461853,-0.1366266906261444,1.315437316894531,-48.11469268798828,12.75222778320312,2
1596229551.932451,14,0,101884.120348,-1.043959004915334,1.118344235146156,1.272662392618563,0.3418876528739929,0.3081789612770081,-0.3951488435268402,-0.1348153948783875,0.03968620300292969,-0.05042767524719238,2,0.6493909359039076,0.1186784364232549,-0.06667544020195604,0.7481719453445895,0.264180600643158,-0.9558863043785095,-0.1284136772155762,1.587242126464844,-47.84671783447266,13.12399291992188,2
1596229551.964933,15,0,101884.150442,-1.09325383770743,1.18120328401912,1.263413480367909,0.339542418718338,0.6822658181190491,-0.4639114141464233,0.02968418598175049,0.05974972248077393,-0.01898229122161865,2,0.65261974795253,0.1289514132073094,-0.06751462332973207,0.7435730438754464,0.2798923552036285,-0.9531286954879761,-0.1149179935455322,1.89923095703125,-47.66715240478516,13.51620483398438,2
1596229552.006186,16,0,101884.180537,-1.136668821169204,1.240687560869477,1.258953266292103,0.3466347455978394,0.4078696370124817,-0.1467698812484741,0.1694296896457672,0.001961469650268555,-0.1328595876693726,2,0.6566387388170877,0.1382008969263543,-0.0655735589730902,0.7385296535197494,0.2902472019195557,-0.9517697095870972,-0.09945216029882431,2.457015991210938,-47.61933898925781,14.29354858398438,2
1596229552.035094,17,0,101884.210632,-1.17487126898103,1.286665077985634,1.25912620815313,0.4071645140647888,0.3465510010719299,-0.08668073266744614,0.08783021569252014,0.09130954742431641,0.05557268857955933,2,0.66084528006071,0.1424888577858854,-0.06443726539261585,0.7340492334584179,0.2943538129329681,-0.9518227577209473,-0.08596087992191315,2.271263122558594,-47.45057678222656,14.4873046875,2
1596229552.072804,18,0,101884.270821,-1.228294929057251,1.361258370421685,1.268521497836598,0.2878190875053406,0.3131628036499023,0.05449869111180305,-0.03748020529747009,-0.07135581970214844,-0.002385258674621582,2,0.6684873947362991,0.1488736243133499,-0.05599450752740459,0.726516294940967,0.2911814749240875,-0.9546617865562439,-0.06192249432206154,1.898757934570312,-47.33294677734375,15.5045166015625,2
1596229552.101475,19,0,101884.300916,-1.259934577246422,1.402257574405988,1.264854178598682,0.2544296681880951,0.4966669380664825,-0.3651017546653748,-0.09662887454032898,0.03283154964447021,0.1509354114532471,2,0.671500878629573,0.1543543914816269,-0.05497594087684693,0.7226611276960822,0.2969246208667755,-0.9535636305809021,-0.0505225844681263,2.109405517578125,-47.05905151367188,16.12069702148438,2
1596229552.134567,20,0,101884.331011,-1.281048239066412,1.435834205709105,1.256528236199773,0.1081917285919189,0.3358829021453857,-0.1466280221939087,0.09600964188575745,-0.05609256029129028,0.04662680625915527,2,0.672982802834959,0.1621653682128747,-0.05417149706112123,0.7196263851550752,0.3063099384307861,-0.9510228633880615,-0.04159308224916458,2.121414184570312,-46.8695068359375,16.35540771484375,2
1596229552.168222,21,0,101884.361105,-1.289713955069029,1.44977422855386,1.258939673305362,0.1050752624869347,0.07606489211320877,0.220279648900032,0.05373841524124146,-0.03397750854492188,-0.03391236066818237,2,0.6743627359584492,0.163443534377455,-0.05175626637669811,0.7182217693526698,0.304582417011261,-0.9517655372619629,-0.03704222291707993,1.933845520019531,-46.65823364257812,16.56961059570312,2
1596229552.200883,22,0,101884.3912,-1.294711389897793,1.460329715015426,1.26174238380114,0.07069683074951172,0.2724343836307526,-0.1054432243108749,-0.1496712565422058,0.03390645980834961,0.04553765058517456,2,0.6753830406697666,0.1645973296234784,-0.04901511820355348,0.7171909889065693,0.3023034036159515,-0.9526217579841614,-0.03353093564510345,1.9002685546875,-46.82982635498047,16.64056396484375,2
1596229552.252271,23,0,101884.421295,-1.302722555510264,1.480154837496492,1.254657990876924,0.04956181719899178,0.465810626745224,-0.3090759813785553,-0.04415696859359741,0.03678005933761597,0.09004950523376465,2,0.6756882849205735,0.1713898338571596,-0.04765287217253872,0.715402016738085,0.3096222281455994,-0.9504430890083313,-0.02814173325896263,1.825973510742188,-46.81906890869141,16.7200927734375,2
1596229552.269016,24,0,101884.45139,-1.306916209503429,1.490184660914394,1.24782645760145,-0.07658986747264862,-0.1756962537765503,-0.1104730218648911,0.1445941925048828,-0.04725825786590576,-0.06717127561569214,2,0.6754928020182811,0.1758717927900954,-0.04814637146525036,0.7144651920660556,0.3163535892963409,-0.9482970237731934,-0.02555717341601849,1.929374694824219,-46.88908386230469,16.768798828125,2
1596229552.311059,25,0,101884.481484,-1.309945465373767,1.48415387854888,1.247625735968856,0.1511545926332474,-0.2486798912286758,-0.03353846445679665,-0.06080430746078491,0.01555842161178589,-0.04280632734298706,2,0.6755833572623543,0.1727616636086368,-0.05133605892099385,0.7149162884512619,0.3163838386535645,-0.9482333064079285,-0.02748106978833675,2.226486206054688,-46.76383972167969,16.8167724609375,2
1596229552.336413,26,0,101884.541674,-1.335520004833879,1.498586542240329,1.234837535399009,-0.00375157967209816,-0.1826060712337494,-0.08902758359909058,-0.04003012180328369,-0.01610052585601807,0.03486895561218262,2,0.6767338129091763,0.1736053774917025,-0.06004880462276058,0.7129422432590117,0.3288153409957886,-0.9440946578979492,-0.02378503791987896,3.030769348144531,-46.68632507324219,17.044921875,2
1596229552.37283,27,0,101884.571768,-1.335457312177798,1.497062003789748,1.232799011138011,0.02329131960868835,0.1167834028601646,-0.1516484469175339,-0.1136996150016785,0.009476959705352783,0.1069927215576172,2,0.6764525356889354,0.173775532242888,-0.06125424964805409,0.7130652726236456,0.330697774887085,-0.9434206485748291,-0.02442806214094162,3.175872802734375,-46.46951293945312,17.27670288085938,2
1596229552.404241,28,0,101884.601863,-1.338169860776436,1.50368814087138,1.224498742338298,0.008912436664104462,0.09533452987670898,-0.3448050320148468,-0.02442538738250732,0.01370513439178467,0.05870229005813599,2,0.6759604363706818,0.1780370376302562,-0.06287956513196075,0.7123387353108441,0.338653564453125,-0.9406358003616333,-0.02276060357689857,3.446922302246094,-46.51234436035156,17.3291015625,2
1596229552.439037,29,0,101884.631958,-1.340748354226594,1.505352263173121,1.215229443962473,0.05057479813694954,-0.1928001791238785,-0.2684964239597321,0.1031491160392761,0.01845663785934448,-0.05321526527404785,2,0.6751970688737144,0.1809027064101402,-0.06647401882490545,0.7120143135296328,0.3473767638206482,-0.9374492764472961,-0.02276625856757164,3.897453308105469,-46.55577850341797,17.16412353515625,2
1596229552.491366,30,0,101884.6620539167,-1.357339724344722,1.510299594168995,1.208540989089395,0.2330846041440964,-0.4254828691482544,-0.1972916126251221,0.189128041267395,0.006691873073577881,-0.0779343843460083,2,0.6761129378478766,0.1793273284222571,-0.07304140539153753,0.7108994171856826,0.3537358641624451,-0.9350999593734741,-0.02142600901424885,4.168586730957031,-46.40337371826172,17.1651611328125,2
1596229552.506734,31,0,101884.6921479167,-1.377166806639106,1.515837687724287,1.204813186282079,0.2229837030172348,-0.3334112167358398,-0.07871150225400925,-0.001553595066070557,0.02043741941452026,-0.01589810848236084,2,0.677677821753688,0.1758515030180355,-0.07951077546776786,0.7095824345546158,0.3573276400566101,-0.9337723851203918,-0.019658038392663,4.840896606445312,-46.16805267333984,17.66653442382812,2
1596229552.5501,32,0,101884.7222429167,-1.386804949747091,1.521536450505861,1.201695004250529,-0.005937624722719193,0.0515386089682579,-0.1708664149045944,-0.02923315763473511,-0.0428466796875,0.18295818567276,2,0.6784238959239611,0.1756664268729887,-0.08208547730489568,0.7086213173536102,0.3603394627571106,-0.9326519370079041,-0.01776464842259884,5.028823852539062,-46.18975830078125,17.69268798828125,2
1596229552.57445,33,0,101884.7523379167,-1.388311862312948,1.524808966967892,1.197277915203365,0.02879566699266434,-0.01207482069730759,-0.05981538817286491,0.04218098521232605,0.06997025012969971,0.00861513614654541,2,0.6782277457122881,0.1778196743452191,-0.08305359349773689,0.7081591674312218,0.3645077645778656,-0.9310492873191833,-0.01677457615733147,5.05865478515625,-46.00205230712891,17.76702880859375,2
1596229552.612578,34,0,101884.8125269167,-1.355706866212624,1.48889934077827,1.199559671384925,-0.4306073486804962,0.2303929775953293,-0.08250138908624649,-0.155126541852951,0.01626133918762207,0.2997491955757141,2,0.6741126162372707,0.1753110515361744,-0.08281597206453856,0.7127270179164147,0.3615524172782898,-0.931879460811615,-0.02967643178999424,5.331123352050781,-46.05818176269531,17.29022216796875,2
1596229552.642248,35,0,101884.8426219167,-1.310895617700271,1.468317787681113,1.193525345132382,-0.6264042854309082,1.119434714317322,-0.1198165342211723,-0.1150931119918823,0.06889653205871582,0.4396243095397949,2,0.6685192396251006,0.1850385994207239,-0.075811783233522,0.7163067123290882,0.3664520382881165,-0.929673433303833,-0.03768548741936684,5.335609436035156,-46.43363189697266,16.873046875,2
1596229552.67485,36,0,101884.8727169167,-1.244997919439239,1.437738527327521,1.189772031187979,-1.103390216827393,0.9738718271255493,-0.03081265836954117,-0.006657987833023071,-0.09455955028533936,0.239117443561554,2,0.660640339168732,0.1971980695168251,-0.06358273226075545,0.7215431331208326,0.3685844540596008,-0.928284227848053,-0.04933452606201172,4.917991638183594,-46.87664794921875,15.93624877929688,2
1596229552.709972,37,0,101884.9028109167,-1.143428278171626,1.368621652426206,1.177849484575624,-1.544578790664673,0.758431613445282,-0.3287630975246429,-0.01113727688789368,-0.003262758255004883,0.2721184492111206,2,0.6463756916305989,0.2091746948537321,-0.05333222906292923,0.7318469800458201,0.3751130402088165,-0.9237846732139587,-0.07688882201910019,4.645477294921875,-47.02405548095703,14.8377685546875,2
1596229552.742666,38,0,101884.9329059167,-1.007452355815972,1.267602165568801,1.151512436966807,-2.422410011291504,0.9398610591888428,-0.4697745144367218,-0.06271910667419434,-0.1590384244918823,0.4858759045600891,2,0.6240003504975082,0.2232679729348095,-0.04384882018673131,0.7475643092401433,0.3885377049446106,-0.9133806824684143,-0.1215499490499496,4.58355712890625,-47.76682281494141,11.93313598632812,2
1596229552.791976,39,0,101884.9630009167,-0.8377610342697723,1.150183022091437,1.107491559057142,-2.97780704498291,1.748092770576477,-0.5243016481399536,-0.0505635142326355,-0.184039294719696,0.5416808128356934,2,0.591303346689835,0.2431454503814658,-0.02900418081643286,0.7683745881088873,0.4079540967941284,-0.8945804834365845,-0.1824812889099121,5.023597717285156,-48.34396362304688,9.876312255859375,2
1596229552.810396,40,0,101884.9930959167,-0.6293407400648381,1.071437086037676,1.031252592327136,-5.960400581359863,5.769404411315918,-1.186144351959229,-0.1367338001728058,-0.2396875619888306,0.2313924431800842,2,0.540628818404116,0.2910562989136999,0.007798713030146065,0.7892692883325171,0.4510111808776855,-0.8579431772232056,-0.246013417840004,5.456153869628906,-48.82615661621094,3.866119384765625,2
1596229552.848958,41,0,101885.0231899167,-0.357817894074968,1.069572017303139,0.9017106759902566,-6.866341114044189,8.352527618408203,-1.28719699382782,-0.7146642208099365,-0.4087768793106079,0.4538933634757996,2,0.4505468779073507,0.3846920787796564,0.08072106700251469,0.801563235117883,0.5439727902412415,-0.7843891382217407,-0.2980390191078186,6.391998291015625,-48.75762176513672,-0.887115478515625,2
1596229552.878071,42,0,101885.0833799167,0.07175724490697342,1.306645914898968,0.6360341945968322,-4.723232269287109,8.33979320526123,-1.805647015571594,0.387661874294281,0.7942355275154114,0.6108448505401611,2,0.2274223637834131,0.585885151939625,0.2169913906672804,0.7469488144295697,0.776555061340332,-0.5940098166465759,-0.2100353091955185,15.54414367675781,-44.29163360595703,-14.12158203125,2
1596229552.914167,43,0,101885.1134739167,0.2011635461682427,1.453330538778646,0.5870917037499552,-2.833643913269043,6.059760570526123,-0.1453769505023956,1.256515860557556,1.001163721084595,0.1986091136932373,2,0.1513058477394287,0.6544620146719041,0.2631031253237601,0.6925047906491754,0.82681804895401,-0.5539420247077942,-0.09757202118635178,23.3031005859375,-39.81472015380859,-15.31106567382812,2
1596229552.945638,44,0,101885.1435689167,0.2834468546856311,1.545102957577733,0.5820777556631354,-2.17120623588562,3.531131744384766,-0.1265736222267151,0.9576656818389893,0.03405177593231201,-0.1568498611450195,2,0.1089909354666115,0.6909348996351501,0.2951706932116875,0.6508488547002351,0.8350465297698975,-0.5497606992721558,-0.02145988121628761,26.58935546875,-38.225830078125,-14.29568481445312,2
1596229552.980765,45,0,101885.1736639167,0.3679354276454174,1.585262058316833,0.5789954290903391,-2.331924915313721,2.31663703918457,0.1857794225215912,0.6301240921020508,-0.1597064733505249,-0.2058017253875732,2,0.07214859194856277,0.7077064154652013,0.3229520430057644,0.6242180650186063,0.836925208568573,-0.5471833944320679,0.01210757996886969,28.05876159667969,-37.56607055664062,-14.34130859375,2
1596229553.033141,46,0,101885.2037589167,0.4341170628358449,1.603105074172431,0.6041714682182706,-1.184508085250854,1.098096489906311,1.35368287563324,0.3608985543251038,0.7290523648262024,-0.3819243907928467,2,0.05437597531987226,0.7143777381429136,0.3517463622551145,0.6024799580127068,0.8225434422492981,-0.5680804252624512,0.02658459916710854,28.33207702636719,-37.10137939453125,-15.2139892578125,2
1596229553.048973,47,0,101885.2338529167,0.4455844826487129,1.599372731129962,0.6463990288646182,0.4463411569595337,-0.5323570370674133,1.057745456695557,0.1428102850914001,1.180704116821289,-0.6900942325592041,2,0.06562606542138627,0.7121076717094089,0.368151691515566,0.594188644168353,0.7979319095611572,-0.6023158431053162,0.02280823327600956,27.42005920410156,-37.34845733642578,-15.14480590820312,2
1596229553.092628,48,0,101885.2639479167,0.4115515182044051,1.592740874974753,0.6582409681897398,1.057744741439819,-1.608409523963928,-0.126590684056282,0.175393283367157,0.5241475105285645,-0.104081392288208,2,0.08303681085425912,0.7083671529569909,0.361381765567432,0.6006031351460122,0.7908790707588196,-0.6117262840270996,0.01735827140510082,25.85262298583984,-38.69500732421875,-15.09701538085938,2
1596229553.116338,49,0,101885.2940429167,0.3847677315879602,1.545063736757639,0.653896986912492,0.2000702023506165,-2.266595363616943,0.1537138223648071,0.07387375831604004,-0.3031163215637207,0.1958427429199219,2,0.09937194975963171,0.692758338142579,0.349687972819972,0.6228398112395213,0.7934566140174866,-0.6082841157913208,-0.02042220160365105,25.68684387207031,-38.76918792724609,-15.22207641601562,2
1596229553.149246,50,0,101885.3542319167,0.4162293367371926,1.507448682029698,0.6949402348494619,0.1455813944339752,1.193681955337524,0.2898107767105103,-0.2368003726005554,0.280832827091217,0.2578054666519165,2,0.1099822959940481,0.6808757222618795,0.3696589553404548,0.6226271141574511,0.7665514945983887,-0.6403395533561707,-0.04862429201602936,23.0546875,-39.52222442626953,-17.5501708984375,2
1596229553.183949,51,0,101885.3843269167,0.408879616487735,1.535282149996796,0.6942635932711152,0.1338001638650894,0.04808570444583893,-0.08708862215280533,0.01677191257476807,0.09868091344833374,0.001825451850891113,2,0.1071199690464554,0.6891164013262947,0.3686987391545416,0.6145771446812146,0.7680403590202332,-0.6398196816444397,-0.0272877961397171,23.27194976806641,-39.70111083984375,-16.57620239257812,2
1596229553.216475,52,0,101885.4144209167,0.4037589469601125,1.533336582247302,0.7018584685637153,0.05238852649927139,0.00944417342543602,0.5466747283935547,-0.0597119927406311,-0.4474407434463501,-0.03142201900482178,2,0.1119396463815867,0.6878734705867278,0.36925564036272,0.6147763359834048,0.76310795545578,-0.6456379890441895,-0.0285992082208395,23.32828521728516,-39.68628692626953,-16.4273681640625,2
1596229553.252633,53,0,101885.4445159167,0.4071746059237221,1.541715114719245,0.7164223884021872,-0.06876899302005768,0.6628626585006714,0.2689451575279236,-0.3081193566322327,-0.1084364056587219,0.1426506042480469,2,0.1143659069857298,0.6898956767474799,0.3750590292793832,0.6085186879710736,0.7538408637046814,-0.656690776348114,-0.02192878909409046,22.75904846191406,-40.08777618408203,-16.30422973632812,2
1596229553.284696,54,0,101885.4746109167,0.4089002415265244,1.570336161436186,0.7167957581005892,-0.06899368017911911,1.251741528511047,-0.1478091031312943,-0.2392550706863403,-0.07664155960083008,0.07712638378143311,2,0.1085148442422355,0.6986065171902385,0.3772851042696889,0.5981884746571851,0.7539146542549133,-0.656972348690033,-0.0003469254297669977,22.88660430908203,-40.04142761230469,-15.9130859375,2
1596229553.328543,55,0,101885.5047059167,0.4136717928135151,1.607816783120241,0.7134431498863781,-0.1531272232532501,1.432367920875549,-0.01790386810898781,0.04697585105895996,0.009706318378448486,0.04644978046417236,2,0.09857915167329895,0.7101230731202175,0.3796239106768641,0.5847162281300102,0.7555949687957764,-0.6544410586357117,0.02798525616526604,23.95058441162109,-40.08496856689453,-14.94122314453125,2
1596229553.352124,56,0,101885.5347999167,0.4183129773679827,1.644424639927059,0.7191353505583022,-0.0491982027888298,0.8370757102966309,0.4111899435520172,0.5177269577980042,0.2884401679039001,0.04527580738067627,2,0.09186811287556912,0.7205784547058417,0.3844593919337352,0.5696648424281292,0.7503373026847839,-0.6587343811988831,0.05534612014889717,24.05462646484375,-40.23203277587891,-14.44091796875,2
1596229553.391605,57,0,101885.5648949167,0.4188790842410291,1.636003075803981,0.7362210952214301,-0.1786926835775375,-1.100825428962708,0.6813438534736633,0.3679447770118713,0.1648319959640503,-0.2028787136077881,2,0.09908314233995974,0.7171644817070312,0.3894980404205513,0.5693409505435127,0.7394368648529053,-0.6714925169944763,0.04828472435474396,23.75776672363281,-40.47885894775391,-14.01983642578125,2
1596229553.419773,58,0,101885.6250839167,0.4313671651706009,1.605680767591046,0.7693463658009436,-0.1156947612762451,0.7324500679969788,-0.1185519844293594,-0.7120224833488464,-0.1510815620422363,-0.003452777862548828,2,0.11194036964389,0.7071044493303698,0.4014841674786901,0.5712119634530394,0.7179284691810608,-0.6956658363342285,0.0250546969473362,22.01869201660156,-41.168701171875,-15.35546875,2
1596229553.454717,59,0,101885.6551781667,0.4377660560991258,1.631316684926365,0.7538815045290534,-0.04217458888888359,1.073231220245361,-0.7043535113334656,-0.293765127658844,0.05216211080551147,-0.05874133110046387,2,0.09924187379909971,0.7156803675474466,0.4000075854610265,0.5638674275897838,0.7277026772499084,-0.6844736933708191,0.04409467428922653,22.52095031738281,-40.48209381103516,-14.64999389648438,2
1596229553.487532,60,0,101885.6852731667,0.4347333149851512,1.654888922733094,0.7392042297521155,0.1339409053325653,0.2144348621368408,-0.1683496683835983,0.2036694288253784,-0.04540908336639404,-0.115272045135498,2,0.09067515715429858,0.7230586612956138,0.3957850387724831,0.5588545389662061,0.7363935112953186,-0.6737000346183777,0.06207162514328957,23.47584533691406,-40.49434661865234,-14.16339111328125,2
1596229553.52245,61,0,101885.7153681667,0.4354078601766146,1.652864901382262,0.7405622227057419,-0.169854536652565,-0.190678671002388,0.1600162386894226,0.4593508243560791,-0.1001787781715393,-0.06917595863342285,2,0.09128975549552032,0.7224397322183057,0.3963004816885132,0.5591895855997918,0.7356051802635193,-0.6747030019760132,0.06050597131252289,23.63677215576172,-40.47574615478516,-13.95693969726562,2
1596229553.57094,62,0,101885.7454621667,0.4412805699010733,1.634071926596167,0.748123999605093,-0.03657641261816025,-0.8291561007499695,0.3467810750007629,0.3123725652694702,0.1958318948745728,-0.02962267398834229,2,0.09547464980776438,0.7169787721697019,0.3993851722201984,0.563309381935171,0.7314994335174561,-0.6802648901939392,0.04634793847799301,23.51110076904297,-40.52838134765625,-14.323974609375,2
1596229553.590185,63,0,101885.7755571667,0.4336469581021892,1.61156713275471,0.7599684518466041,0.2711394429206848,-0.8582711815834045,0.3767978847026825,-0.04007411003112793,0.1999111175537109,0.05147528648376465,2,0.1067364459021388,0.7094926039680263,0.399656217832088,0.5705282536685166,0.724255383014679,-0.6888985633850098,0.02954484708607197,22.43920135498047,-40.74394226074219,-15.052490234375,2
1596229553.632624,64,0,101885.8056521667,0.4260139999543476,1.595662399580193,0.7673397142825825,0.08358298242092133,-0.5823925733566284,0.1404160261154175,-0.1244203448295593,-0.07287651300430298,0.0185856819152832,2,0.115142838445328,0.7040525591723337,0.3987833187351539,0.5762151586439429,0.7195374369621277,-0.6942229270935059,0.01789575815200806,21.77384185791016,-40.99345397949219,-15.29150390625,2
1596229553.658057,65,0,101885.8357461667,0.4222814365448663,1.583077724786003,0.771914510749821,0.06910500675439835,-0.4120592474937439,0.2101601660251617,-0.08714014291763306,-0.1741158962249756,-0.1008602380752563,2,0.1205416722522947,0.6999070486015405,0.3983149007321732,0.5804697823857485,0.7165226936340332,-0.6975083947181702,0.008800342679023743,21.42720031738281,-41.31440734863281,-15.44540405273438,2
1596229553.693309,66,0,101885.8959361667,0.4112648082725275,1.563616522406517,0.7873184603593831,0.2955670356750488,-0.7470522522926331,0.2375985234975815,0.07646065950393677,0.01604652404785156,-0.1779950857162476,2,0.1336039878710445,0.6925434507361976,0.3983719555068923,0.5863730440380746,0.7057294845581055,-0.7084633111953735,-0.005067086312919855,20.37528228759766,-41.70496368408203,-15.9776611328125,2
1596229553.725572,67,0,101885.9260311667,0.3983729694978385,1.54301097936373,0.7957665293596279,0.2598143219947815,-1.173359513282776,0.3556371629238129,0.1990168690681458,0.03729045391082764,-0.09981739521026611,2,0.145086576280516,0.6850035851424512,0.3955732820713343,0.5943415152688051,0.6994674205780029,-0.7144001722335815,-0.019439946860075,19.82500457763672,-41.77699279785156,-15.84893798828125,2
1596229553.758311,68,0,101885.9561251667,0.3912765624149458,1.513286615411528,0.809514595799915,0.1809066832065582,-1.159180283546448,0.4933474063873291,0.000109255313873291,0.06657707691192627,0.147179126739502,2,0.1582192125273498,0.6746414414748623,0.3951077054509518,0.6030883882107847,0.688709557056427,-0.7239524126052856,-0.03965121135115623,18.39382171630859,-42.318603515625,-16.38143920898438,2
1596229553.810232,69,0,101885.9862201667,0.3805556176693138,1.485310549008525,0.821544137359509,0.3374088406562805,-1.16712760925293,0.2213715016841888,-0.1775788068771362,0.1075100898742676,0.2185539603233337,2,0.1715980928064481,0.6644378920333003,0.3929014171907543,0.6121315762852716,0.6786045432090759,-0.7321984171867371,-0.05815276503562927,17.63630676269531,-42.60246276855469,-16.49075317382812,2
1596229553.825937,70,0,101886.0163151667,0.3678788124373885,1.455618423028391,0.8249720161049257,0.2386558800935745,-1.44577956199646,-0.01868486776947975,-0.1953499913215637,-0.05741041898727417,0.2575392723083496,2,0.182798240966828,0.6539056349920642,0.3872945532815674,0.623694764514494,0.6740815043449402,-0.7345287799835205,-0.07798444479703903,16.53090667724609,-42.9107666015625,-16.929931640625,2
1596229553.872509,71,0,101886.0464091667,0.3589382742987186,1.418401920070163,0.822497701715313,0.1306882500648499,-1.293833374977112,-0.2065004110336304,-0.1984090209007263,-0.1793075203895569,0.2109125852584839,2,0.1919378060542234,0.6414953407304363,0.3803209435511349,0.6379652630671186,0.6725075244903564,-0.7328475117683411,-0.1032872125506401,15.91774749755859,-43.00640869140625,-17.10476684570312,2
1596229553.893802,72,0,101886.0765041667,0.3520283231084261,1.388232595133525,0.8151456664168006,0.09341531246900558,-1.204222679138184,-0.306759387254715,-0.1303767561912537,-0.1377193331718445,0.2093517184257507,2,0.1971186069058505,0.631580341228263,0.3732159585655868,0.6503540633961035,0.6743660569190979,-0.7278255224227905,-0.1245010569691658,15.25191497802734,-42.79119110107422,-17.91848754882812,2
1596229553.93345,73,0,101886.1065991667,0.3317307924735881,1.340717367420444,0.8055407809105287,0.9984552264213562,-3.337764501571655,-0.5717447996139526,0.04803353548049927,-0.06158739328384399,0.002749204635620117,2,0.2085641011200067,0.6144200054085418,0.3591989887502866,0.6707944180717892,0.6744669675827026,-0.7212053537368774,-0.1579781472682953,14.58442687988281,-42.94151306152344,-18.40237426757812,2
1596229553.961527,74,0,101886.1667881667,0.1258164220015992,1.164000889174681,0.8029641126207515,3.082580804824829,-7.148696899414062,-0.3315783441066742,1.04712700843811,0.2990895509719849,0.2750912308692932,2,0.2939908924262846,0.52550760131911,0.262727657939287,0.7539133055952165,0.6378952860832214,-0.7194180488586426,-0.2748222351074219,10.98316955566406,-44.74330139160156,-16.847412109375,2
1596229553.996249,75,0,101886.1968831667,-0.005026838544590166,1.028271797446147,0.8496967943816426,3.361233472824097,-8.385349273681641,0.2891150116920471,0.6794742345809937,0.5113940834999084,0.5241571068763733,2,0.3600199056112664,0.447160313926621,0.2007097339393573,0.793819169204212,0.5654098391532898,-0.7510802745819092,-0.3408666551113129,8.8145751953125,-45.51540374755859,-15.75100708007812,2
1596229554.029329,76,0,101886.2269781667,-0.1137021254607861,0.8468930848945433,0.9190703380366618,3.170780658721924,-8.752243995666504,0.7244155406951904,0.1827312409877777,0.1265077590942383,0.6309675574302673,2,0.4246304290760057,0.3447064466164682,0.1355269530163909,0.826134906405586,0.4544503092765808,-0.7950380444526672,-0.4017329216003418,3.117378234863281,-47.52511596679688,-11.97894287109375,2
1596229554.064386,77,0,101886.2570721667,-0.1954117794926018,0.6651365378998837,1.003200719359437,2.968027114868164,-7.684470653533936,0.7324526309967041,-0.1521795988082886,0.06121575832366943,0.2706872224807739,2,0.4802399747709106,0.2405546249036225,0.07538144147291131,0.8401313523192044,0.3317925930023193,-0.8431960344314575,-0.4230060875415802,0.6289596557617188,-48.56068420410156,-9.567840576171875,2
1596229554.109245,78,0,101886.2871671667,-0.2425755723631809,0.4985274539764664,1.079450797859357,1.901146054267883,-6.02180004119873,0.9751855134963989,-0.168024018406868,0.3169357180595398,0.2481749653816223,2,0.5199638512243427,0.1498132381968343,0.02525900414662524,0.8405685807523765,0.2255890667438507,-0.8816988468170166,-0.4143871665000916,-2.924606323242188,-49.32608795166016,-4.22467041015625,2
1596229554.131914,79,0,101886.3172621667,-0.1812969706225937,0.3047615055428551,1.126034993650004,0.3656236827373505,-3.136975765228271,1.761403322219849,-0.33134725689888,0.05609458684921265,0.2177383899688721,2,0.537009476883246,0.08007875491833033,0.005019943675119209,0.8397518413199915,0.1291010528802872,-0.9027133584022522,-0.4104164242744446,-4.220733642578125,-49.31913757324219,-2.5966796875,2
1596229554.170989,80,0,101886.3473561667,-0.09309107093752371,0.1818949490220123,1.137169410744254,0.007497695274651051,-0.0200889203697443,0.6380769610404968,-0.7245826721191406,-0.01779747009277344,0.2240256667137146,2,0.5391948935933988,0.05150026698782162,0.009803275335837192,0.8405477196312739,0.07600510865449905,-0.9074478149414062,-0.4132331907749176,-7.313499450683594,-49.20980834960938,-1.421875,2
1596229554.199622,81,0,101886.3774511667,-0.07425754574708174,0.170611356926581,1.142866737489455,0.2607024610042572,0.05487542226910591,0.183197945356369,-0.425902247428894,0.1160679459571838,0.2303184270858765,2,0.5411605034252095,0.05161344876084867,0.01493960097107855,0.8392008657623105,0.07045865803956985,-0.9098268747329712,-0.4089627265930176,-7.82720947265625,-48.93257904052734,-1.20745849609375,2
1596229554.232168,82,0,101886.4376411667,-0.05912250842867812,0.114214883818415,1.182913711414287,0.8805027008056641,-1.754328489303589,0.02694305963814259,-0.1484450995922089,-0.1079784631729126,0.3331232070922852,2,0.5578193460755965,0.03090686236457466,0.007314164237582244,0.8293544153705997,0.04310552030801773,-0.925711989402771,-0.3757646977901459,-8.392478942871094,-49.00242614746094,0.127838134765625,2
1596229554.267372,83,0,101886.4677351667,-0.06323288391211745,0.06599859863249505,1.200640304540177,0.3453239798545837,-1.317068576812744,0.01935013756155968,-0.2313134372234344,0.04136753082275391,-0.005015075206756592,2,0.5651775514269451,0.009363341751652543,-0.007441085701587691,0.8248826043304098,0.02385838516056538,-0.932270884513855,-0.3609733283519745,-8.672340393066406,-49.04833221435547,2.099853515625,2
1596229554.299959,84,0,101886.4978301667,-0.06372966735472498,0.05070778371041476,1.211903077685697,0.180547684431076,0.5606579780578613,-0.06418951600790024,-0.674579381942749,-0.2304428219795227,-0.5060595870018005,2,0.5697362195069223,0.002687553259879683,-0.01174749611963544,0.8217392911094656,0.01780288480222225,-0.9362861514091492,-0.3507868349552155,-8.489234924316406,-48.91934967041016,2.569061279296875,2
1596229554.351592,85,0,101886.5279251667,-0.1085673267117712,0.1680064460869855,1.212086906780758,0.4741514623165131,3.68177604675293,-1.039019346237183,-1.036199331283569,-0.5174100399017334,-0.2483193278312683,2,0.5705170383657923,0.03806328394748804,0.003286240105321081,0.8203966306724203,0.05870426818728447,-0.9363507032394409,-0.3461229801177979,-8.178192138671875,-48.96266174316406,2.643218994140625,2
1596229554.367798,86,0,101886.5580191667,-0.2431854776303228,0.3908189726777342,1.234860500576879,1.427756190299988,2.463034152984619,-1.312785148620605,-0.2509055733680725,0.2986571192741394,0.029002845287323,2,0.5829334809909538,0.0882644803214522,0.01456559016469655,0.8075801163726435,0.1255797445774078,-0.9441022276878357,-0.304795891046524,-7.217498779296875,-49.03844451904297,2.656036376953125,2
1596229554.412247,87,0,101886.5881141667,-0.3715187708637553,0.5664203669385331,1.245825830165582,0.5327912569046021,1.168257594108582,-0.5384862422943115,0.7359538674354553,0.1961676478385925,0.06714487075805664,2,0.5924428417342713,0.1195932344807632,0.0161925716157742,0.7965216525335108,0.1713308542966843,-0.9476601481437683,-0.2694178819656372,-5.3038330078125,-49.16087341308594,4.47222900390625,2
1596229554.435429,88,0,101886.6182091667,-0.3880821362831073,0.5989152747277721,1.264511272249965,0.8514031171798706,-0.04778791591525078,0.6920877695083618,0.7044398188591003,-0.08572030067443848,-0.06548988819122314,2,0.5999570195093952,0.1246288967573215,0.02243518766125852,0.7899466926740656,0.1699800789356232,-0.9534602761268616,-0.249038428068161,-5.266448974609375,-49.11985778808594,5.687530517578125,2
1596229554.470388,89,0,101886.6483036667,-0.39889419696365,0.5896394747818279,1.295038291771905,0.5636058449745178,-1.163568735122681,0.1336720585823059,0.0397314727306366,0.04728496074676514,-0.1105940937995911,2,0.6116581126956985,0.1128014216015338,0.0205933567899268,0.7827682976223942,0.1514025628566742,-0.9622190594673157,-0.2263003885746002,-5.757080078125,-48.97815704345703,6.436279296875,2
1596229554.503181,90,0,101886.7084936667,-0.4738199829090506,0.6599176657305872,1.328951526973306,0.894329309463501,0.7727969288825989,-0.1072323098778725,-0.1976620852947235,0.1122311353683472,0.1260390281677246,2,0.6269516211072763,0.1110245939557356,0.01941704646538955,0.7708619266039706,0.1468221694231033,-0.9708977937698364,-0.1892104148864746,-5.94622802734375,-48.65457153320312,8.264801025390625,2
1596229554.538112,91,0,101886.7385886667,-0.5526430859435951,0.7536746194807744,1.339512571616835,0.6616032123565674,0.2612595856189728,-0.2158512622117996,0.06302005052566528,-0.02403950691223145,0.09078943729400635,2,0.6340433722390708,0.1200633012970051,0.02090040008640232,0.7636340239310915,0.1568653285503387,-0.9733729362487793,-0.1671476066112518,-6.096946716308594,-48.40921783447266,9.816070556640625,2
1596229554.594172,92,0,101886.7686826667,-0.6139280778890002,0.8114354836078294,1.349855083647215,0.2554028928279877,-0.3428232967853546,-0.003222684841603041,0.2264577448368073,-0.09267419576644897,0.1826829314231873,2,0.6403902505307885,0.1202634944220149,0.01831854721629944,0.7583543816633647,0.1589426547288895,-0.9756916165351868,-0.1508740335702896,-5.504226684570312,-48.12435913085938,10.20703125,2
1596229554.605789,93,0,101886.7987776667,-0.6105912425099891,0.7942099634626193,1.352961512285456,0.1803223937749863,-0.3136149942874908,0.2188448458909988,-0.00303804874420166,-0.001474261283874512,0.1366199254989624,2,0.641286657742405,0.1141018180769752,0.0147856490227799,0.7586260515803313,0.1541575491428375,-0.9763676524162292,-0.1514644026756287,-5.735527038574219,-48.42947387695312,10.80136108398438,2
1596229554.650092,94,0,101886.8288726667,-0.6200024196726788,0.8087506672000363,1.36278611951478,0.09805746376514435,0.5289286971092224,0.002220151713117957,-0.2423247992992401,0.02862906455993652,0.3152530193328857,2,0.6446944932419756,0.1143680611507981,0.01817886971149402,0.7556180612234207,0.1493975073099136,-0.9784437417984009,-0.1425779163837433,-5.944770812988281,-48.06605529785156,10.98333740234375,2
1596229554.673708,95,0,101886.8589666667,-0.6435988895856578,0.8522233899471693,1.358504926456154,0.1349194198846817,0.7940305471420288,-0.2641096413135529,-0.005574673414230347,-0.03190672397613525,0.07350575923919678,2,0.6443839280001501,0.1241624221950849,0.02226129072754318,0.7542263305167625,0.1586035043001175,-0.9775506854057312,-0.1387060880661011,-5.937637329101562,-47.88587951660156,10.94723510742188,2
1596229554.710862,96,0,101886.8890616667,-0.6513972431166613,0.8723913637291359,1.359830001895874,-0.00368906557559967,-0.03120449557900429,0.2047209888696671,0.1538988053798676,0.01676064729690552,-0.1227307319641113,2,0.6450216620401117,0.1289329883155138,0.02614886710987002,0.7527546531558793,0.160376638174057,-0.9778290390968323,-0.1346466839313507,-6.176971435546875,-48.08625793457031,11.128662109375,2
1596229554.741796,97,0,101886.9191566667,-0.6488659531255278,0.8596156253678584,1.362175635023823,0.04417100548744202,-0.4726731181144714,-0.1257403045892715,0.05222219228744507,0.04508745670318604,-0.1264097094535828,2,0.6457053464725679,0.1243827537029828,0.0235556411275053,0.7530196931432265,0.156905323266983,-0.9783174991607666,-0.1351870745420456,-6.100639343261719,-48.27157592773438,11.11346435546875,2
1596229554.773944,98,0,101886.9793456667,-0.6558999676305893,0.8436099497552,1.355462091204907,-0.1035207211971283,-0.1807187348604202,-0.1598494499921799,-0.1591058671474457,-0.01577657461166382,0.1177363395690918,2,0.6443079821227964,0.1176652148496873,0.01410353410367093,0.755528464341979,0.1596248000860214,-0.9769050478935242,-0.1420442461967468,-5.529228210449219,-47.99420928955078,11.25833129882812,2
1596229554.808968,99,0,101887.0094406667,-0.6764632719502952,0.863293112335845,1.347740616844009,-0.01352585759013891,0.1079863160848618,-0.335711270570755,0.01563826203346252,0.06023490428924561,0.03309345245361328,2,0.643144412827934,0.1203266518109819,0.01077033314321285,0.7561553145255778,0.1681175082921982,-0.9752260446548462,-0.1437735259532928,-5.369056701660156,-47.96471405029297,11.04446411132812,2
1596229554.841776,100,0,101887.0395356667,-0.6844229785401532,0.8711123151479422,1.342253034505553,-0.1343292891979218,-0.1671181917190552,-0.03207801282405853,0.1196117103099823,-0.03250163793563843,-0.05142343044281006,2,0.641991975990742,0.1220538101414035,0.008904189100947757,0.7568816390064766,0.1733277440071106,-0.9739974737167358,-0.1458983421325684,-4.873466491699219,-48.02783203125,11.01028442382812,2
1596229554.891976,101,0,101887.0696296667,-0.6822949600316783,0.8616465633660568,1.336810491689759,-0.1243082955479622,-0.2397234737873077,-0.3029043972492218,-0.08251801133155823,0.02174556255340576,0.09276652336120605,2,0.6403097249304568,0.1204667462359746,0.005318305133132528,0.758592745580728,0.1759596765041351,-0.9727500081062317,-0.1509824395179749,-4.583793640136719,-48.38741302490234,10.79193115234375,2
1596229554.909278,102,0,101887.0997246667,-0.6963609601670842,0.8739107655839597,1.326070357983565,-0.1822371035814285,0.1919983923435211,-0.264277309179306,0.02407363057136536,0.02032530307769775,0.1358823776245117,2,0.6380111204031673,0.1232350807631674,0.001209276042856755,0.7601009410854705,0.1857991367578506,-0.9702037572860718,-0.1555098444223404,-4.204811096191406,-48.38343811035156,10.816162109375,2
1596229554.952126,103,0,101887.1298196667,-0.6825994865220618,0.8670056905725168,1.31972865365771,-0.2550247013568878,0.1158246845006943,0.0384102463722229,0.08950886130332947,-0.05601942539215088,0.02328956127166748,2,0.6353007447731018,0.1265280930031669,0.002657519259572361,0.7618244030337189,0.1894077360630035,-0.9686477184295654,-0.1607672125101089,-4.115806579589844,-48.52342987060547,10.24728393554688,2
1596229554.977254,104,0,101887.1599136667,-0.6666781892158896,0.8503807472780334,1.31463724312995,-0.1326277405023575,-0.157947912812233,-0.157638818025589,-0.06420460343360901,0.08724796772003174,-0.02113562822341919,2,0.6328010783538084,0.1264521324182865,0.002200136476130599,0.7639160878350445,0.1904131323099136,-0.9673702716827393,-0.167145311832428,-4.221626281738281,-48.70940399169922,9.951568603515625,2
1596229555.012051,105,0,101887.1900086667,-0.6684648679872326,0.8492264724104633,1.308339957266203,-0.1915853321552277,-0.003751959418877959,-0.1161073446273804,0.1040900349617004,-0.04222589731216431,-0.05268216133117676,2,0.6310258908128428,0.1269389893957648,-0.0003926569032031146,0.7653055757786349,0.194789782166481,-0.9657555818557739,-0.1713856309652328,-3.892005920410156,-48.62614440917969,9.791473388671875,2
1596229555.0447,106,0,101887.2501976667,-0.6462968543710745,0.8254690920554029,1.297587722924694,-0.06929869204759598,-0.1256663352251053,-0.174192950129509,-0.06828874349594116,0.1012991070747375,-0.1044389605522156,2,0.6263335953394716,0.127309331724565,-0.001963547868939319,0.7690870043884849,0.1982835829257965,-0.9629101157188416,-0.1829971224069595,-3.267341613769531,-48.78672790527344,9.141143798828125,2
1596229555.079852,107,0,101887.2802926667,-0.6440794934892222,0.8175846460285513,1.292237208060574,-0.17818284034729,-0.1852206885814667,-0.04798663780093193,-0.04230529069900513,-0.01632732152938843,-0.1240886449813843,2,0.6245286380401582,0.1261988083841877,-0.004852525864215973,0.7707231850824425,0.2005897760391235,-0.9614526629447937,-0.1880756765604019,-3.2769775390625,-48.68048858642578,8.984710693359375,2
1596229555.13119,108,0,101887.3103876667,-0.6414704547499879,0.8135966538863698,1.287970082872623,-0.01185672264546156,0.1050716191530228,-0.1569460183382034,-0.07294440269470215,0.0373762845993042,-0.06027603149414062,2,0.6230287499608085,0.1264515933273324,-0.006103596220888574,0.7718858652881562,0.20281782746315,-0.9602705240249634,-0.1916903406381607,-3.072868347167969,-48.75159454345703,8.963653564453125,2
1596229555.147588,109,0,101887.3404816667,-0.6516900255483913,0.8287068420008847,1.283802847477642,-0.08551108837127686,0.0690242275595665,-0.1205636635422707,0.05598381161689758,0.01060009002685547,0.07979297637939453,2,0.6224395660557671,0.1300593987569056,-0.006337793944155845,0.771759939735549,0.2086390554904938,-0.959099292755127,-0.1913070827722549,-3.192459106445312,-48.90080261230469,9.078948974609375,2
1596229555.190611,110,0,101887.3705766667,-0.6437552907084845,0.8157943466580152,1.280471094961346,-0.08085069805383682,-0.2331812828779221,0.01071480382233858,0.09022042155265808,-0.02232813835144043,-0.1103898286819458,2,0.620846956606479,0.1283049025316996,-0.008082778447350114,0.7733185562498919,0.2084774672985077,-0.9581508040428162,-0.1961738169193268,-2.758781433105469,-48.95523071289062,8.583251953125,2
1596229555.215531,111,0,101887.4006716667,-0.6415314543268184,0.8085503640597859,1.279995193093953,-0.02130035310983658,-0.1432047337293625,-0.02041809447109699,0.04476171731948853,0.04876130819320679,0.03452140092849731,2,0.6205246775827319,0.1263017701243046,-0.009583577946519817,0.7738897117871436,0.2073809802532196,-0.9580144882202148,-0.1979939788579941,-2.628547668457031,-48.72426605224609,8.713775634765625,2
1596229555.251238,112,0,101887.4307656667,-0.6365604420320634,0.8016261757562483,1.278264781772482,-0.09968151152133942,-0.01229908689856529,0.03235624730587006,-0.0001095831394195557,-0.03366750478744507,0.0228879451751709,2,0.6196346643883386,0.1255549132600793,-0.01021317407337513,0.7747158029921627,0.2071956247091293,-0.9575169086456299,-0.2005776911973953,-2.801429748535156,-48.75334167480469,8.6126708984375,2
1596229555.283212,113,0,101887.4608606667,-0.6330686895223477,0.7964375462834896,1.278184670648971,0.100709930062294,-0.1184636801481247,-0.008261533454060555,0.02432984113693237,0.03090000152587891,-0.08192890882492065,2,0.6193642992327208,0.1246441594779248,-0.01048611557224061,0.7750752399034366,0.2062066495418549,-0.957493782043457,-0.2017033994197845,-2.847091674804688,-48.83670806884766,8.532745361328125,2
1596229555.315514,114,0,101887.5210506667,-0.644375092639524,0.7993019088690894,1.283694660326211,0.03493097424507141,-0.3638527095317841,0.001190082170069218,0.01204696297645569,-0.009466111660003662,-0.08076465129852295,2,0.6218068811115126,0.1209987715980797,-0.01268419857540265,0.773663181134685,0.2029988318681717,-0.9590686559677124,-0.1974309980869293,-2.872245788574219,-48.76302337646484,8.85284423828125,2
1596229555.352678,115,0,101887.5511446667,-0.6523149011393301,0.7979275136701283,1.284127231433682,0.04080110788345337,-0.1962495744228363,-0.01497681252658367,-0.02662244439125061,0.02799606323242188,0.03215456008911133,2,0.6224064887621882,0.1178988403395803,-0.01608107136862036,0.7735964632806029,0.2024301737546921,-0.9591910243034363,-0.1974200457334518,-2.630828857421875,-48.66344451904297,8.885955810546875,2
1596229555.383495,116,0,101887.5812396667,-0.6509482657593416,0.7946430217522592,1.285090375763027,0.02714107930660248,0.02430932223796844,0.05020261183381081,-0.05933862924575806,0.004025161266326904,0.07778006792068481,2,0.6226005693633212,0.1168340600955289,-0.01634804178080307,0.7735962619870758,0.2011213898658752,-0.9594629406929016,-0.197436660528183,-2.819389343261719,-48.94753265380859,8.95831298828125,2
1596229555.431533,117,0,101887.6113346667,-0.6515738899033559,0.7958102037633913,1.285085546897505,-0.03629866614937782,0.0348365530371666,-0.06119494512677193,-0.01277658343315125,0.004588603973388672,0.03091436624526978,2,0.6226451588552682,0.1170918363009663,-0.01622779451811174,0.7735239245133532,0.2013549953699112,-0.9594615697860718,-0.1972050219774246,-2.826698303222656,-49.04935455322266,9.10626220703125,2
1596229555.451307,118,0,101887.641428125,-0.6508399837803889,0.7943791062951564,1.282003741422594,-0.0988105908036232,-0.08111178874969482,-0.04385790228843689,-0.02980911731719971,0.004786789417266846,0.02912378311157227,2,0.6216263009659549,0.1174686901258577,-0.01711368329669499,0.774266695492709,0.2031808197498322,-0.9585884213447571,-0.1995636969804764,-2.678108215332031,-48.65152740478516,8.973480224609375,2
1596229555.490417,119,0,101887.671523125,-0.6463047820781763,0.7912111351056345,1.280851084050966,0.00256796833127737,0.1607562154531479,0.01508734747767448,-0.00651085376739502,0.02201664447784424,-0.004258990287780762,2,0.6209711646223839,0.1179126016626468,-0.01661185716815439,0.7747356732858284,0.2033331692218781,-0.9582595229148865,-0.2009828686714172,-2.540702819824219,-48.66831970214844,8.949798583984375,2
1596229555.518909,120,0,101887.701618125,-0.646465065394398,0.7946462424581257,1.280684624576742,-0.04850266873836517,-0.02928962744772434,-0.005747095216065645,0.04286131262779236,0.00265038013458252,-0.06791847944259644,2,0.6209558835340314,0.1192312236303476,-0.01564658537103164,0.7745663392388764,0.2041366696357727,-0.9582118988037109,-0.200395405292511,-2.578598022460938,-48.79926300048828,8.923583984375,2
1596229555.555201,121,0,101887.731712125,-0.6445222562969437,0.7909500265034068,1.280306957662992,0.0283108726143837,-0.07666110992431641,-0.01474311947822571,-0.02255001664161682,0.02251452207565308,-0.01043999195098877,2,0.6206924360862027,0.1184881106282151,-0.01612978494573097,0.7748815227526737,0.2036517709493637,-0.9581038355827332,-0.2014029324054718,-2.65399169921875,-48.83839416503906,8.837310791015625,2
1596229555.586609,122,0,101887.791902125,-0.6526618050676929,0.7974524363727497,1.279168804611566,0.005222818814218044,0.05959366634488106,0.002254223683848977,0.005137413740158081,-0.002962887287139893,0.01655793190002441,2,0.6208728502078533,0.118739253820774,-0.01753174497043197,0.7746679737459747,0.2057369649410248,-0.957777202129364,-0.200835794210434,-2.564254760742188,-48.97947692871094,9.113677978515625,2
1596229555.621479,123,0,101887.821996125,-0.6527058765932507,0.7971975822157894,1.27848214189388,-0.02920102328062057,-0.02457726001739502,-0.03413916751742363,-0.0253167450428009,0.00887596607208252,0.006624519824981689,2,0.62065817899378,0.1187835976967867,-0.01778977888476746,0.7748273238773293,0.2061562985181808,-0.9575795531272888,-0.2013477683067322,-2.455329895019531,-48.96263885498047,8.90924072265625,2
1596229555.667914,124,0,101887.852091125,-0.6557602678092412,0.8007358959572598,1.276219922746828,-0.04238153249025345,0.03212806209921837,-0.1292583495378494,0.01228919625282288,0.02058744430541992,0.03612911701202393,2,0.6201642991716981,0.1197242955312543,-0.01840976658048504,0.7750634845098116,0.2084220200777054,-0.9569252133369446,-0.2021246701478958,-2.486900329589844,-48.93182373046875,8.7791748046875,2
1596229555.689334,125,0,101887.882186125,-0.6595193431363165,0.80395450705178,1.272862050199498,-0.03257743641734123,-0.06948051601648331,-0.06040846183896065,0.04253676533699036,-0.006132721900939941,-0.03129363059997559,2,0.6193710664985944,0.1205774482073782,-0.01966523332883802,0.775534516105733,0.2113841027021408,-0.9559448957443237,-0.2036811262369156,-2.359184265136719,-48.93662261962891,8.71087646484375,2
1596229555.730189,126,0,101887.912280125,-0.6601919824862326,0.8010497549581271,1.272313560500769,-0.005191422067582607,-0.1283115297555923,0.02118607424199581,0.0195624828338623,0.03139275312423706,-0.04617130756378174,2,0.6192104456548917,0.1193685887130317,-0.02095564698629054,0.7758159292493825,0.2111680209636688,-0.9557837843894958,-0.2046591341495514,-2.244163513183594,-48.93715667724609,8.7724609375,2
1596229555.756985,127,0,101887.942375125,-0.658855316211571,0.7977134902435759,1.273314799629636,0.04720999673008919,-0.00351845333352685,0.02067852020263672,-0.0373847484588623,0.009718000888824463,-0.02060788869857788,2,0.6194092078297145,0.1182587205021189,-0.02123329678662839,0.7758197255669035,0.2097990959882736,-0.9560776948928833,-0.2046942114830017,-2.054412841796875,-48.92961120605469,8.724853515625,2
1596229555.791201,128,0,101887.972470125,-0.6633112932368264,0.8035981517150513,1.273857508738524,0.05031796917319298,0.07781229913234711,-0.04239413142204285,-0.03320291638374329,0.02320015430450439,0.01814711093902588,2,0.6199053734492219,0.1190353896168811,-0.02100932762822949,0.7753105561400264,0.2106263786554337,-0.9562366604804993,-0.2030958086252213,-2.376266479492188,-48.83689117431641,8.739532470703125,2
1596229555.824837,129,0,101888.002564125,-0.6701854077662314,0.8108064345575685,1.273952389720758,0.01998722553253174,-0.05015550553798676,-0.02197776362299919,0.0261920690536499,0.00487220287322998,0.00212019681930542,2,0.6204215836952345,0.1196752883872088,-0.02141541020296733,0.7747878427127216,0.2120190858840942,-0.9562644362449646,-0.2015097737312317,-2.175582885742188,-48.97982025146484,8.79296875,2
1596229555.857299,130,0,101888.062754125,-0.6657014401006793,0.8091865336537697,1.275360412499313,0.05606060847640038,0.1937191337347031,-0.08537084609270096,-0.06311142444610596,0.003701627254486084,0.02552849054336548,2,0.6205731747414107,0.1201126006667619,-0.01984433310363976,0.7746406562590002,0.2107179313898087,-0.9566752910614014,-0.2009238004684448,-2.089134216308594,-48.85997009277344,8.809783935546875,2
1596229555.910577,131,0,101888.092848125,-0.6751495178776011,0.8219730352197208,1.274931240636906,0.05296482518315315,0.04653777927160263,0.001155109144747257,0.06098181009292603,0.03232240676879883,-0.04321908950805664,2,0.6211389794578834,0.122229555461546,-0.01963580141524762,0.773860964823699,0.2135704904794693,-0.9565502405166626,-0.1984926015138626,-2.104476928710938,-48.89138031005859,8.9249267578125,2
1596229555.925367,132,0,101888.122943125,-0.6695543239437335,0.8168008023025665,1.275657900445424,-0.08053837716579437,-0.03254346922039986,0.06618040055036545,0.08322939276695251,0.02779161930084229,-0.03326177597045898,2,0.6209721950425264,0.1217957566458952,-0.01890141926861699,0.7740814484899433,0.2120341807603836,-0.95676189661026,-0.1991186589002609,-2.323127746582031,-48.93611907958984,9.003753662109375,2
