loggingTime,loggingSample,identifierForVendor,motionTimestamp_sinceReboot,motionYaw,motionRoll,motionPitch,motionRotationRateX,motionRotationRateY,motionRotationRateZ,motionUserAccelerationX,motionUserAccelerationY,motionUserAccelerationZ,motionAttitudeReferenceFrame,motionQuaternionX,motionQuaternionY,motionQuaternionZ,motionQuaternionW,motionGravityX,motionGravityY,motionGravityZ,motionMagneticFieldX,motionMagneticFieldY,motionMagneticFieldZ,motionMagneticFieldCalibrationAccuracy
1596229817.801136,1,0,102150.0010795,2.660308060407564,-1.27119158150707,1.222821236188957,0.08727170526981354,0.001304500736296177,-0.1846683174371719,-0.02495706081390381,0.04888641834259033,-0.005025625228881836,2,0.5821918004197272,0.3327636500148488,0.5587323309993524,0.4879951104007727,-0.3258046805858612,-0.9400651454925537,-0.1006421223282814,-28.09407806396484,-40.06845855712891,15.00149536132812,2
1596229817.827772,2,0,102150.0311775,2.66235802115635,-1.272008705901892,1.228615129146817,0.07394920289516449,-0.03485485166311264,-0.1672469079494476,-0.005450129508972168,0.01019304990768433,0.01195287704467773,2,0.5815697872510901,0.3352478701197829,0.5573581338861124,0.4886075412694801,-0.3206760287284851,-0.9420250058174133,-0.09877089411020279,-27.81842041015625,-40.32315063476562,15.15457153320312,2
1596229817.869276,3,0,102150.0612755,2.667087477437219,-1.279252112165449,1.233197174508593,0.0984465703368187,-0.1469115018844604,-0.1336889714002609,-0.03385937213897705,0.03278297185897827,-0.05237662792205811,2,0.5823797117139782,0.3364995145055162,0.5551111051139972,0.4893399900719214,-0.3172455430030823,-0.9435526132583618,-0.09520389884710312,-27.65585327148438,-40.3397216796875,15.1968994140625,2
1596229817.888028,4,0,102150.0913735,2.672738860492743,-1.287578626740812,1.238605543854925,0.1232831403613091,0.009057069197297096,-0.1702433079481125,-0.06832557916641235,0.03308933973312378,-0.04716527462005615,2,0.583233143741577,0.3380432571925477,0.5525400818072189,0.4901687035859991,-0.3131229281425476,-0.9453301429748535,-0.09113170951604843,-27.30540466308594,-40.29129791259766,15.458251953125,2
1596229817.92907,5,0,102150.1214715,2.677079289893712,-1.283526036243971,1.246284737405236,0.150247797369957,0.206868976354599,-0.272861510515213,0.008782237768173218,-0.008438050746917725,0.04971957206726074,2,0.5806490352323834,0.3430400886945845,0.5526094903967351,0.4896866398417839,-0.3057800233364105,-0.9478065967559814,-0.09034039080142975,-27.52777862548828,-40.88877105712891,15.4456787109375,2
1596229817.948212,6,0,102150.1515695,2.681938859524485,-1.284047460301293,1.252755332019381,0.01878426969051361,0.05126040801405907,-0.1366433203220367,0.1217890381813049,0.008555591106414795,0.0934983491897583,2,0.5793335808369772,0.3466271986748698,0.551812645916532,0.4896171301420641,-0.2999379634857178,-0.9498498439788818,-0.08844437450170517,-27.35620880126953,-41.03853607177734,15.35043334960938,2
1596229817.990839,7,0,102150.1816675,2.682603620351475,-1.286127210141625,1.255379481606796,0.02802246063947678,-0.1494155079126358,-0.02658220008015633,0.09734797477722168,-0.00322037935256958,-0.02284872531890869,2,0.579535891371717,0.3472435597141451,0.5506279619198476,0.4902743144277063,-0.2977281510829926,-0.950667142868042,-0.08712012320756912,-27.01341247558594,-40.88154602050781,15.44857788085938,2
1596229818.008394,8,0,102150.2117655,2.681733431975304,-1.291612508265547,1.256282882967765,0.0199569221585989,-0.1795449703931808,-0.05465491116046906,0.01203024387359619,0.0003286600112915039,0.008763432502746582,2,0.5811053647746324,0.3459653764791292,0.5485662517474466,0.4916295602285795,-0.2973759770393372,-0.9509469866752625,-0.08524902909994125,-26.91593933105469,-40.68533325195312,15.62509155273438,2
1596229818.050863,9,0,102150.2418635,2.684364401173099,-1.297698746347137,1.2577642883295,0.02973764762282372,-0.09821468591690063,-0.03279568627476692,-0.04238337278366089,0.02384757995605469,-0.01420897245407104,2,0.5821702630558956,0.3457586823085691,0.5470228175624035,0.4922344058489054,-0.2965321838855743,-0.9514042735099792,-0.08305743336677551,-26.64215087890625,-40.41310882568359,15.69729614257812,2
1596229818.068635,10,0,102150.2719615,2.686922038719755,-1.302341069661304,1.260511749608418,0.06066635996103287,-0.05584177002310753,-0.1095844879746437,-0.05630090832710266,0.01472187042236328,0.01761257648468018,2,0.5827186495850166,0.3463320593188287,0.5455212950907157,0.4928482140938897,-0.2943925857543945,-0.9522467255592346,-0.08098615705966949,-26.54557037353516,-40.72812652587891,16.12887573242188,2
1596229818.112333,11,0,102150.3020595,2.691302764451396,-1.307782343727807,1.263032182547986,0.05033273622393608,-0.003315195441246033,-0.01501874160021544,0.02162647247314453,-0.00194239616394043,0.009725391864776611,2,0.5831831702988485,0.3471568310854841,0.5443013120197338,0.4930675712710798,-0.2925111651420593,-0.9530132412910461,-0.07875905185937881,-26.59595489501953,-40.78487396240234,15.95071411132812,2
1596229818.128764,12,0,102150.3321575,2.696571391557569,-1.313594011173879,1.264774012783861,0.08885940909385681,-0.07746310532093048,-0.0635928139090538,-0.01518687605857849,0.01597058773040771,-0.02427178621292114,2,0.5836660166059264,0.3478740230091875,0.5434117833823817,0.4929718001490199,-0.2913578152656555,-0.9535394310951233,-0.07663529366254807,-26.46068572998047,-40.58610534667969,16.11190795898438,2
1596229818.169374,13,0,102150.3622555,2.708477468977557,-1.327688582072846,1.265772241481029,0.1578049063682556,-0.1429883241653442,0.05268213525414467,0.07382416725158691,-0.01012343168258667,0.006376981735229492,2,0.5853110325792612,0.3482311837734442,0.5419443665035127,0.4923842461348933,-0.291484922170639,-0.9538397192955017,-0.07229207456111908,-26.37168884277344,-40.67157745361328,16.31265258789062,2
1596229818.189029,14,0,102150.3923535,2.719581453804635,-1.34513363579686,1.264578162946053,0.02181577309966087,-0.2610844373703003,0.1143765598535538,0.1296947002410889,0.01035594940185547,0.06160628795623779,2,0.588233437925363,0.3467791936063141,0.539893602072641,0.4921793504060803,-0.2938118278980255,-0.9534804224967957,-0.06745122373104095,-26.26203155517578,-40.41602325439453,16.6756591796875,2
1596229818.230029,15,0,102150.4224515,2.717670492565385,-1.35401592193826,1.259031954458074,-0.09537975490093231,-0.4976660907268524,0.1756801903247833,0.1472833454608917,-0.01209014654159546,0.03787875175476074,2,0.5915889827735018,0.342103556945882,0.5383453857074784,0.493124555385597,-0.2995590567588806,-0.9517938494682312,-0.06597526371479034,-26.07173156738281,-40.42966461181641,16.8748779296875,2
1596229818.249151,16,0,102150.4525495,2.713965578082839,-1.367757133096474,1.251196501166864,-0.07106499373912811,-0.5840964317321777,0.353775292634964,0.1432676315307617,-0.01524174213409424,0.001562237739562988,2,0.5967988695586559,0.3348935833389667,0.5355170660360969,0.4948725569961986,-0.3077326714992523,-0.9493612051010132,-0.06335479766130447,-26.42354583740234,-40.68354034423828,16.91372680664062,2
1596229818.292284,17,0,102150.4826475,2.723424866313001,-1.392469973226675,1.24103042215109,0.1573365777730942,-0.4887470006942749,0.3143688142299652,0.01796934008598328,0.04853421449661255,-0.1503816843032837,2,0.6030119911307339,0.3281103120056773,0.5332317604215133,0.4943521064063316,-0.3186862468719482,-0.946118175983429,-0.05744032189249992,-26.38414001464844,-40.01029205322266,17.48580932617188,2
1596229818.309391,18,0,102150.5127455,2.748307464229516,-1.430896161356008,1.23207245556585,0.3174102902412415,-0.4621734321117401,0.3762777149677277,0.02142444252967834,0.04059743881225586,-0.1125328540802002,2,0.6102664438309888,0.3231212548910252,0.5301250632193222,0.4920720489908665,-0.3290371894836426,-0.9431794881820679,-0.04633504524827003,-26.71817016601562,-39.76564025878906,18.03378295898438,2
1596229818.349777,19,0,102150.5428435,2.794259035319325,-1.477969683361994,1.222547001295989,0.6377202868461609,0.335138738155365,0.357231080532074,-0.1836585402488708,0.02857303619384766,-0.2654943466186523,2,0.6165763458898604,0.3225177248440993,0.5294059527736453,0.4853299779015161,-0.3397833406925201,-0.9399715662002563,-0.03163185343146324,-26.82546997070312,-39.28007507324219,18.61602783203125,2
1596229818.369602,20,0,102150.5729415,2.860871679775905,-1.524223342288486,1.2163593634571,0.8026328682899475,0.6083742380142212,0.04186456650495529,-0.3222323060035706,0.103472113609314,-0.2431658506393433,2,0.6188964542786782,0.3299821720557972,0.5326402911054829,0.473680566341904,-0.3466860949993134,-0.937842071056366,-0.01615788973867893,-27.17833709716797,-38.85515594482422,18.94100952148438,2
1596229818.410868,21,0,102150.6030395,2.941812456289778,-1.583419553552738,1.21973470917166,1.020459651947021,0.5653623938560486,-0.1280481219291687,-0.119293749332428,0.1410312652587891,-0.0529559850692749,2,0.6205043348627526,0.342264284166756,0.5324484894545765,0.4629556336123712,-0.3438668251037598,-0.9390081763267517,0.004340939689427614,-27.69464111328125,-38.28128814697266,19.77371215820312,2
1596229818.429727,22,0,102150.6331375,3.016440735392794,-1.639967158522825,1.223313745423339,0.6990490555763245,0.1496793031692505,-0.1988891661167145,0.04250138998031616,0.009780287742614746,0.02630138397216797,2,0.6219051366449047,0.3535562663253558,0.531194840168998,0.4539425634589457,-0.3397171199321747,-0.9402329325675964,0.02353606559336185,-27.75577545166016,-37.98215484619141,20.14016723632812,2
1596229818.472261,23,0,102150.6632355,3.076167464557811,-1.699584711096682,1.226240835184856,0.5838167071342468,-0.2942444086074829,-0.121445395052433,0.09197697043418884,-0.02671974897384644,0.05039513111114502,2,0.626422687585658,0.3595628953747618,0.5254733133545497,0.4496518804873988,-0.3349805474281311,-0.9412257075309753,0.043381717056036,-27.51478576660156,-37.66879272460938,21.1788330078125,2
1596229818.489973,24,0,102150.6933335,3.123787338244847,-1.752658685246753,1.227920676110862,0.4529122114181519,-0.1944499164819717,-0.1478475034236908,0.06473278999328613,-0.007728457450866699,0.09749698638916016,2,0.6313225585666657,0.3630899388111174,0.5191369656675009,0.4473188472472208,-0.3306518197059631,-0.9417917728424072,0.06080495193600655,-27.43796539306641,-37.36842346191406,21.70700073242188,2
1596229818.531567,25,0,102150.7234315,-3.12354131882886,-1.792916857802045,1.227781171221256,0.3254839479923248,-0.1511453241109848,0.05454448610544205,0.1002434492111206,-0.01076674461364746,0.1541457176208496,2,0.6352258168718992,0.3654236613618281,0.514416929725616,0.4453413379471597,-0.3280653059482574,-0.941744863986969,0.07409258186817169,-27.01109313964844,-37.43822479248047,22.3734130859375,2
1596229818.550138,26,0,102150.7535295,-3.101908770086573,-1.814800250007711,1.223373438050808,0.1816503256559372,-0.003963860217481852,0.07199537754058838,0.09258973598480225,-0.03476977348327637,0.2743222713470459,2,0.6378998264079717,0.3663489482710353,0.5130181474156,0.4423625288673629,-0.3303902745246887,-0.9402532577514648,0.08225548267364502,-26.86661529541016,-36.99971771240234,22.77023315429688,2
1596229818.593205,27,0,102150.7836275,-3.103843091487426,-1.814729870423817,1.217191935772428,-0.08424956351518631,-0.1093889474868774,0.319979727268219,0.125999391078949,-0.03373140096664429,0.2492735385894775,2,0.6396602962719184,0.3642140874400867,0.5136652144941167,0.4408296593920907,-0.3360297381877899,-0.9381306767463684,0.0836343914270401,-27.3134765625,-37.26853942871094,23.00576782226562,2
1596229818.610361,28,0,102150.8137255,-3.118238985798933,-1.805046727074612,1.2117716030465,-0.1187302470207214,-0.1159360781311989,0.009076233953237534,-0.2421208620071411,0.03347510099411011,0.004935026168823242,2,0.6410160377746814,0.3603835460539443,0.5145200077240193,0.4410114724944395,-0.3417645990848541,-0.9362399578094482,0.08155572414398193,-27.37671661376953,-36.78650665283203,23.02557373046875,2
1596229818.649762,29,0,102150.8438235,-3.111242242216818,-1.805695573879784,1.218409058053428,0.1811614185571671,0.5885060429573059,-0.3613849878311157,-0.2121430635452271,0.1157275438308716,-0.1244524717330933,2,0.6384059622429412,0.3641462924744691,0.5147114172653577,0.4414831411337182,-0.3356607854366302,-0.9385514259338379,0.08032938838005066,-27.17387390136719,-36.77088165283203,22.84365844726562,2
1596229818.670572,30,0,102150.8739215,-3.085948781468996,-1.81093964228611,1.223926999451298,0.1975533217191696,0.478628396987915,-0.05390720441937447,0.2529802322387695,-0.04680073261260986,-0.003327488899230957,2,0.6338289213850055,0.3724092636263129,0.5176633035014722,0.4377177897624737,-0.3301996290683746,-0.9404416084289551,0.08085552603006363,-27.35756683349609,-36.6851806640625,22.55160522460938,2
1596229818.711219,31,0,102150.9040200417,-3.075684461425707,-1.812858367492324,1.219364127671609,0.0975278913974762,0.196751281619072,0.2188115119934082,0.2228759527206421,-0.08234888315200806,0.1423587799072266,2,0.6334753950539914,0.3741219807318006,0.5200542509455118,0.4339183518784627,-0.3342063426971436,-0.9388806223869324,0.08251666277647018,-27.43363189697266,-36.65811157226562,22.68612670898438,2
1596229818.730815,32,0,102150.9341180417,-3.074118635672039,-1.805962380406546,1.212599875639087,0.1779816001653671,0.3957022428512573,0.2020160704851151,0.07606983184814453,0.08079731464385986,-0.02860045433044434,2,0.6329582485180587,0.3744433492106926,0.5236960429786541,0.4299980651605562,-0.340935617685318,-0.9365306496620178,0.08168793469667435,-28.15500640869141,-36.33661651611328,22.40283203125,2
1596229818.771028,33,0,102150.9642160417,-3.063494216986859,-1.795895218445221,1.203440866754137,0.1823424696922302,1.03243088722229,0.331388920545578,-0.02522069215774536,-0.05324894189834595,0.06622195243835449,2,0.6304289177949827,0.3776782368140684,0.5306470264695705,0.4222940200789408,-0.3500879406929016,-0.9332804083824158,0.08016294240951538,-28.60511779785156,-36.41806030273438,22.3253173828125,2
1596229818.791046,34,0,102150.9943140417,-3.055164228061219,-1.761840848819864,1.191657904956082,0.06982202082872391,1.405943155288696,0.4140380620956421,0.1001636385917664,0.009092926979064941,0.2264599800109863,2,0.6223871095229826,0.384414301822537,0.5449805254255448,0.4097026140575333,-0.3633866310119629,-0.9289838671684265,0.07028014212846756,-29.9781494140625,-35.63916015625,21.51632690429688,2
1596229818.830056,35,0,102151.0244120417,-3.072986284888493,-1.715971061606508,1.177365642944531,-0.3650077879428864,0.54142165184021,0.648993194103241,0.2330007553100586,-0.008738219738006592,0.1626828908920288,2,0.6163586851891206,0.3844884433943467,0.5579701029947625,0.401173223015839,-0.3793264925479889,-0.9235993027687073,0.05545878410339355,-30.89743041992188,-35.43964385986328,20.73886108398438,2
1596229818.851229,36,0,102151.0545100417,-3.127906659082234,-1.663281800393956,1.155099013668829,-0.9969350099563599,-0.4994484484195709,1.013226628303528,0.3958205580711365,-0.133464515209198,0.2673473358154297,2,0.6166367658715541,0.3720303544999592,0.5671454524689921,0.3996228640651077,-0.4021018147468567,-0.9148349761962891,0.03729497268795967,-31.86982727050781,-34.95811462402344,19.79092407226562,2
1596229818.892078,37,0,102151.0846080417,3.043344424467274,-1.595319962943043,1.120713685617077,-1.897730112075806,-1.419841170310974,1.277168035507202,-0.04917448759078979,-0.06145727634429932,0.5595288276672363,2,0.6237602887633038,0.3409647321420026,0.5721836360823069,0.4089890635709963,-0.4349091649055481,-0.9004111289978027,0.01066769286990166,-32.26596069335938,-34.69015502929688,19.40670776367188,2
1596229818.911335,38,0,102151.1147060417,2.899460289954013,-1.502989501737494,1.083683062323266,-2.531088829040527,-1.259036779403687,1.355077147483826,0.03844588994979858,-0.09489905834197998,0.5845485925674438,2,0.6261644130666306,0.3034153792712465,0.5789034374520796,0.4251210462215833,-0.4670009315013885,-0.8836877346038818,-0.03171446919441223,-33.45210266113281,-35.3492431640625,18.44381713867188,2
1596229818.951609,39,0,102151.1448040417,2.721860027616504,-1.41057782948716,1.01779543301466,-4.06651782989502,-3.002235651016235,2.317430257797241,0.4031955599784851,-0.4181569218635559,0.2961071729660034,2,0.6309727384728,0.2449007326617876,0.5845500447366039,0.4474350903141798,-0.518515944480896,-0.8509521484375,-0.08379407227039337,-33.75144195556641,-34.70489501953125,17.52386474609375,2
1596229818.971561,40,0,102151.1749020417,2.450843668585007,-1.351996451300467,0.8886994533305086,-6.527573585510254,-7.565569400787354,3.423018217086792,0.1369261145591736,-0.3192793726921082,-0.6249473094940186,2,0.6450853755391113,0.1242807386619837,0.5716814879099381,0.4915275866711132,-0.6153919100761414,-0.7762525081634521,-0.1368383169174194,-34.70374298095703,-34.16604614257812,16.166015625,2
1596229819.011213,41,0,102151.2050000417,2.200090549422876,-1.39375636931849,0.7360546265744072,-6.900263786315918,-7.142074584960938,3.807030916213989,0.1105093955993652,0.06379950046539307,0.2234208583831787,2,0.658844497175022,-0.02572741218127553,0.5329417674338534,0.5303160040253855,-0.7295387983322144,-0.6713691353797913,-0.1305240541696548,-34.81896209716797,-33.91221618652344,16.37649536132812,2
1596229819.031737,42,0,102151.2350970417,1.965017365464707,-1.460742619284969,0.6249983301663763,-6.472079277038574,-7.35849142074585,1.957722663879395,0.2306235432624817,-0.1996374726295471,0.1920320987701416,2,0.6552053888579157,-0.1617749411174444,0.4758645653003736,0.5639924941071595,-0.8060577511787415,-0.5850959420204163,-0.08906953036785126,-34.62206268310547,-33.68389129638672,17.2657470703125,2
1596229819.072136,43,0,102151.2651950417,1.731928022951874,-1.567552163054788,0.553852121857952,-6.471524715423584,-8.434859275817871,2.092519283294678,0.9585522413253784,-0.01555317640304565,0.4206228256225586,2,0.6427135585138717,-0.2924717010499872,0.3938842295674503,0.5884171435159133,-0.8505001664161682,-0.5259673595428467,-0.002759171649813652,-32.27030181884766,-35.50323486328125,18.075927734375,2
1596229819.09245,44,0,102151.2952930417,1.5176216144934,-1.72721600542295,0.5072593891491121,-5.3384108543396,-9.179884910583496,1.948713302612305,0.3936145305633545,0.5652926564216614,0.3014150857925415,2,0.6246207131342877,-0.4218200088564886,0.2943135460620631,0.5876192009411939,-0.8634077310562134,-0.485783576965332,0.1361663043498993,-30.69887542724609,-36.41154479980469,18.68899536132812,2
1596229819.12775,45,0,102151.3253910417,1.360951130754267,-1.886818498676088,0.4786813727916723,-2.907614946365356,-5.572705745697021,1.776435256004333,-0.567738950252533,1.030565619468689,0.6847281455993652,2,0.6029960904373481,-0.5237594330184839,0.20963803333869,0.5640243481875736,-0.8436479568481445,-0.4606091678142548,0.2758564651012421,-27.44867706298828,-37.53999328613281,20.69854736328125,2
1596229819.152136,46,0,102151.3554890417,1.312066694728753,-1.940231871275324,0.4711453302197761,0.3179886639118195,0.225353330373764,-0.4993067681789398,-1.552809238433838,0.6364143490791321,0.3849728107452393,2,0.5938390598097879,-0.5551839160629068,0.1826651375726144,0.5529550559012191,-0.8309308886528015,-0.4539071321487427,0.3217480182647705,-26.86194610595703,-37.92340850830078,20.95822143554688,2
1596229819.18545,47,0,102151.3855870417,1.359352783747312,-1.914107674577852,0.4881053201265545,1.404794812202454,2.871870279312134,-1.202331781387329,-0.4976958036422729,0.3502243161201477,0.7104995250701904,2,0.6068452439026537,-0.5295171057785257,0.1976289176464918,0.5588320069481868,-0.831682562828064,-0.4689533114433289,0.2972990274429321,-26.307861328125,-38.11568450927734,21.26980590820312,2
1596229819.212216,48,0,102151.4156850417,1.417927377027579,-1.841827443707152,0.5063645452623358,1.490267872810364,3.124117136001587,-0.9308241009712219,0.1824854612350464,0.3583232760429382,0.3974697589874268,2,0.6168554476550046,-0.4863681155635642,0.2300139439195317,0.5744815129093108,-0.8425896763801575,-0.4850012063980103,0.2341291755437851,-27.06642150878906,-38.4249267578125,20.79751586914062,2
1596229819.249306,49,0,102151.4457830417,1.458877875229109,-1.79855323256451,0.5214438325129404,0.146493211388588,0.7379767894744873,-0.7190778851509094,0.2124335765838623,0.04133850336074829,0.2436842918395996,2,0.623690246261891,-0.4570591540785357,0.2501787894503527,0.5826815644061185,-0.8447080254554749,-0.4981326162815094,0.1957851946353912,-27.63673400878906,-37.97308349609375,20.03564453125,2
1596229819.272665,50,0,102151.4758810417,1.447166096354388,-1.814427365221563,0.5472586142088126,-0.7337349653244019,-1.892906188964844,-0.5639811158180237,0.4033547639846802,-0.285239577293396,-0.1945667266845703,2,0.626911492625702,-0.458236609617133,0.2330859971183097,0.5853818696660325,-0.8287354111671448,-0.5203481912612915,0.2059976160526276,-27.08202362060547,-38.67675018310547,19.97390747070312,2
1596229819.306804,51,0,102151.5059790417,1.419017704940467,-1.865136819149136,0.5519477213834417,-0.9258747100830078,-2.115401029586792,0.4527453780174255,0.2051758766174316,0.01777797937393188,0.001478075981140137,2,0.6265877353235996,-0.4805229499448357,0.2074018322548207,0.5774685302681477,-0.8148846626281738,-0.5243467092514038,0.2470289915800095,-25.36697387695312,-39.33664703369141,20.47323608398438,2
1596229819.334499,52,0,102151.5360770417,1.394818078931541,-1.892762744299809,0.5554640214829405,-0.2929923534393311,-0.4134387373924255,-0.3812530636787415,-0.3961776494979858,0.04761844873428345,-0.08898735046386719,2,0.6239440261998299,-0.4950992211792495,0.19057451993741,0.5738048432633491,-0.805996298789978,-0.5273376107215881,0.2688587605953217,-24.76509857177734,-39.41297149658203,20.4163818359375,2
1596229819.366513,53,0,102151.5661750417,1.393290172553709,-1.894258853890917,0.5753235608509545,-0.1904186755418777,0.02655097469687462,-0.7210985422134399,-0.2130680084228516,0.04854398965835571,-0.09642589092254639,2,0.6265363613591488,-0.4907070724587465,0.182694686549329,0.5773052341275202,-0.7955052256584167,-0.5441063046455383,0.2666824758052826,-23.87791442871094,-40.18635559082031,20.22122192382812,2
1596229819.392924,54,0,102151.5962730417,1.394674567955633,-1.898086247578992,0.5920667935950982,-0.1776051223278046,-0.2982937693595886,-0.3193833529949188,0.2229905724525452,0.08896195888519287,-0.1189944744110107,2,0.6295475461351232,-0.4868771012295272,0.1759975280375966,0.5793490525897718,-0.7857412099838257,-0.5580772161483765,0.2667588591575623,-23.2821044921875,-40.50507354736328,20.122802734375,2
1596229819.431791,55,0,102151.6263710417,1.391116990516909,-1.909271445042402,0.6020656766075037,-0.1795967668294907,-0.4090660512447357,-0.3040386140346527,0.06496179103851318,-0.03647816181182861,-0.04739391803741455,2,0.631000109464926,-0.4885395407271099,0.1679098032885078,0.5787695512203702,-0.777405858039856,-0.5663461685180664,0.2736640274524689,-22.58889007568359,-40.74806213378906,20.2037353515625,2
1596229819.453234,56,0,102151.6564690417,1.388785533403301,-1.913019216702108,0.6112901652801431,-0.1475171893835068,0.05645011365413666,-0.2546639144420624,-0.1017328500747681,-0.02229821681976318,0.05050420761108398,2,0.6319715497859566,-0.4878701950937268,0.16278113088955,0.5797385885984307,-0.771420419216156,-0.5739244818687439,0.2748107314109802,-22.17140197753906,-41.07836151123047,20.28860473632812,2
1596229819.4882,57,0,102151.6865670417,1.385416149267245,-1.90812198856997,0.6208041342942716,-0.2425878345966339,0.002624883782118559,-0.2737288475036621,0.01007229089736938,0.01906371116638184,-0.07127726078033447,2,0.6320168412820791,-0.4849328300759452,0.1599708521467062,0.5829272482793399,-0.7675696611404419,-0.5816894173622131,0.2692102789878845,-21.85091400146484,-41.49835968017578,19.9952392578125,2
1596229819.515989,58,0,102151.7166650417,1.37824264297022,-1.910949727070229,0.6316859163183329,-0.3491535484790802,-0.5298312902450562,-0.2433878481388092,0.2162479162216187,-0.05743563175201416,-0.08077967166900635,2,0.6319319089998321,-0.4850648784309409,0.1531101820102476,0.5847488629022456,-0.7607926726341248,-0.5905061960220337,0.2692517340183258,-21.52047729492188,-41.59323883056641,19.7760009765625,2
1596229819.550494,59,0,102151.7467620417,1.367120672135703,-1.925235900265235,0.6371441075066684,-0.3016280829906464,-0.718381404876709,0.1457153707742691,0.3927448391914368,-0.1082173585891724,0.01439809799194336,2,0.6309865595753614,-0.4912646084318549,0.1434005703557663,0.5830532748663116,-0.7538345456123352,-0.5949023365974426,0.2789699137210846,-21.15665435791016,-42.70235443115234,19.424560546875,2
1596229819.57347,60,0,102151.7768600417,1.355179759705508,-1.936110661688281,0.6306386679108335,-0.1222677901387215,-0.4216794669628143,0.3917564451694489,0.2004472017288208,-0.1372567415237427,0.01103019714355469,2,0.6279522092269785,-0.499939829242045,0.1388439614301576,0.580050472811351,-0.7543554306030273,-0.5896607041358948,0.2885276079177856,-20.78879547119141,-42.32611846923828,19.65805053710938,2
1596229819.606674,61,0,102151.8069580417,1.34960123561991,-1.938475961521384,0.6229183542468373,0.0427614226937294,0.07786865532398224,0.1409102529287338,-0.1169026494026184,-0.1728137135505676,-0.08507800102233887,2,0.6257074155397073,-0.504439886793547,0.1392691222551191,0.5784761783942745,-0.757896363735199,-0.5834078788757324,0.2919387519359589,-21.12261199951172,-42.00513458251953,19.83694458007812,2
1596229819.633794,62,0,102151.8370560417,1.353905464730883,-1.928612459049279,0.6191514906885103,0.2794077396392822,0.6941404342651367,0.08248836547136307,-0.03451859951019287,-0.1623988151550293,-0.1537208557128906,2,0.625590413735074,-0.5012434635638097,0.1449572402723052,0.5799817983469744,-0.7627918720245361,-0.5803443789482117,0.285216748714447,-21.40483856201172,-41.73330688476562,19.7445068359375,2
1596229819.669656,63,0,102151.8671540417,1.363761882488799,-1.909088989950081,0.6127800515531732,0.3548701405525208,0.9882487058639526,0.09567483514547348,-0.053702712059021,-0.09636449813842773,-0.07313239574432373,2,0.6257146206939795,-0.4941938269252339,0.1562126744591627,0.5829675077406028,-0.7716869711875916,-0.5751439332962036,0.2714926600456238,-21.79944610595703,-41.68502044677734,19.70941162109375,2
1596229819.693911,64,0,102151.89725125,1.380365186511236,-1.881870650391357,0.6094394893427172,0.622425377368927,1.50035297870636,-0.1895910650491714,-0.1280446648597717,0.01617372035980225,0.01822888851165771,2,0.6270806335575702,-0.4819321206663837,0.1707837576019816,0.5876599166023617,-0.7806147336959839,-0.5724079608917236,0.2509773671627045,-22.98019409179688,-41.96633911132812,19.4482421875,2
1596229819.731891,65,0,102151.92734925,1.409819058997192,-1.844296623201213,0.6104115992613403,0.922845721244812,2.147680997848511,-0.3106360733509064,-0.1009918451309204,0.01142704486846924,0.1119974851608276,2,0.6307652803170589,-0.4613004455320456,0.1909614695157699,0.5940292081717492,-0.7889556288719177,-0.5732047557830811,0.2213258743286133,-23.05670928955078,-41.35984802246094,19.31146240234375,2
1596229819.754197,66,0,102151.95744725,1.451709678519221,-1.792695881033331,0.6121789978073903,1.259537696838379,2.858806848526001,-0.4360269904136658,-0.1702566146850586,0.16583251953125,0.1745872497558594,2,0.635084772113699,-0.4321169071143931,0.2192083871651354,0.6015727695159641,-0.7983313202857971,-0.5746521353721619,0.1801153719425201,-23.95249176025391,-40.68668365478516,18.82388305664062,2
1596229819.787059,67,0,102151.98754525,1.512246921238227,-1.730611838961247,0.6222543866952157,1.895265340805054,3.664930582046509,-0.8029577136039734,-0.1089516282081604,0.2031351327896118,0.1857597827911377,2,0.6416586889255577,-0.3910606395192869,0.2539686594310573,0.6089707702087265,-0.8022114038467407,-0.5828684568405151,0.1293085962533951,-24.82973480224609,-40.38140869140625,18.67135620117188,2
1596229819.815799,68,0,102152.01764325,1.595300380321051,-1.65591505773858,0.6357230281208751,2.45297646522522,4.545307636260986,-0.579322338104248,-0.1398051381111145,0.1518853902816772,0.1973044872283936,2,0.6483899012016133,-0.3373340625325246,0.2990786686168895,0.6134721499068422,-0.8017292618751526,-0.5937594771385193,0.06840746849775314,-26.27074432373047,-39.81962585449219,18.17269897460938,2
1596229819.852625,69,0,102152.04774125,1.697951926153987,-1.562061063803946,0.6545878008146001,2.918081283569336,5.563080310821533,-0.9880310893058777,-0.4055505394935608,0.3580016493797302,0.1557439565658569,2,0.6512406477116072,-0.2691111779806722,0.3552266947942397,0.6142301231210591,-0.7932685017585754,-0.6088322997093201,-0.006929585244506598,-27.45269012451172,-39.22628021240234,17.73129272460938,2
1596229819.874579,70,0,102152.07783925,1.812401770365382,-1.456133959829425,0.694350429468251,3.00682544708252,6.193447113037109,-1.129780411720276,-0.2018164992332458,0.1788081526756287,0.2904619574546814,2,0.6491900204929412,-0.1859879802171166,0.4128982838106792,0.6111266424672239,-0.7634233236312866,-0.6398863792419434,-0.08792157471179962,-29.72086334228516,-38.44837188720703,16.27774047851562,2
1596229819.909149,71,0,102152.10793725,1.924046065301025,-1.344838744953269,0.7423396714170198,3.170270681381226,6.062814712524414,-1.14287269115448,0.0165177583694458,0.08060729503631592,0.2014893293380737,2,0.638450546272992,-0.09917022410894677,0.4688749664510717,0.6022476711611251,-0.7181570529937744,-0.6760138273239136,-0.165092334151268,-30.86360931396484,-38.17423248291016,15.18649291992188,2
1596229819.934736,72,0,102152.13803525,2.024817455767954,-1.243482635148622,0.8036811291894614,2.591420650482178,5.145273208618164,-1.400326609611511,0.04724240303039551,0.1628009080886841,0.2865440845489502,2,0.6230752200486043,-0.01437911770108938,0.5137887811149526,0.5895689053652026,-0.6572130918502808,-0.7199158668518066,-0.2231410294771194,-31.92985534667969,-37.91058349609375,12.69100952148438,2
1596229819.96699,73,0,102152.16813225,2.109049442886866,-1.162230775723725,0.8669953976983629,2.315612316131592,4.353051662445068,-1.191072106361389,0.1414098143577576,0.05433648824691772,0.2688449621200562,2,0.6065653748082825,0.05941535034487153,0.5458454600868332,0.5749791144144232,-0.5938567519187927,-0.7623880505561829,-0.257096529006958,-32.23700714111328,-38.23765563964844,11.4986572265625,2
1596229819.994821,74,0,102152.19823025,2.176489512103368,-1.095716341172588,0.9237891266207875,1.892671585083008,3.56566596031189,-1.038871288299561,0.1481627821922302,0.08617973327636719,0.2451065182685852,2,0.5895674345662978,0.1206098885891159,0.5692163188318455,0.5602287033601761,-0.5360445380210876,-0.7978914380073547,-0.2757270038127899,-32.14862823486328,-38.55575561523438,9.7359619140625,2
1596229820.029777,75,0,102152.22832825,2.22848400226866,-1.041416567121591,0.9765719458957635,1.514801025390625,2.91411304473877,-1.044483423233032,0.06224954128265381,0.1493860483169556,0.1869276762008667,2,0.5737590070490486,0.171566026049981,0.5847396948289362,0.5472158622746589,-0.4832320213317871,-0.8285830020904541,-0.2827314138412476,-31.78137969970703,-39.25244140625,8.6864013671875,2
1596229820.054972,76,0,102152.25842625,2.269916190934615,-0.993108538078562,1.027742516013789,1.630706787109375,2.819949150085449,-1.104200959205627,-0.04657304286956787,0.2125383615493774,0.1100117564201355,2,0.558543992887383,0.2166384629509651,0.595235506639112,0.5355288101689322,-0.4328981637954712,-0.8561345934867859,-0.2821927666664124,-31.44887542724609,-39.44798278808594,8.07073974609375,2
1596229820.087302,77,0,102152.28852425,2.304957448431021,-0.9360764878502176,1.083616493492559,1.376758933067322,2.635052680969238,-1.402055621147156,-0.03186273574829102,0.115092933177948,0.3048934936523438,2,0.5401500077390783,0.2635279974409954,0.6041978993367954,0.5231976844622713,-0.3769605159759521,-0.8836566209793091,-0.2775819301605225,-30.45027923583984,-40.34657287597656,7.30718994140625,2
1596229820.115205,78,0,102152.31862225,2.317725025991375,-0.8771788484702712,1.140095389280712,1.163649797439575,2.073460578918457,-1.089603304862976,0.3411539494991302,-0.125623345375061,0.3321466445922852,2,0.523230481085792,0.3045796847035991,0.6066750836990916,0.5151759445296064,-0.3210375308990479,-0.9086733460426331,-0.2669221460819244,-29.69107818603516,-40.64547729492188,7.105133056640625,2
1596229820.149267,79,0,102152.34872025,2.344252709265822,-0.8501317500599195,1.184555293510234,1.222929239273071,1.484870553016663,-0.8706299066543579,0.3571898937225342,0.09649473428726196,0.138575553894043,2,0.5127341651392558,0.335874460532608,0.6071986809121068,0.5055705413910778,-0.283046543598175,-0.926331639289856,-0.248584046959877,-28.52600860595703,-41.62673187255859,6.987091064453125,2
1596229820.175625,80,0,102152.37881825,2.382299297760795,-0.8330915010862033,1.233416902727123,1.474262833595276,2.070545196533203,-0.9788877964019775,-0.02284073829650879,0.02222287654876709,0.03290629386901855,2,0.5025740528427353,0.3689177873045358,0.606189525541468,0.4938149471949038,-0.2449560165405273,-0.9436253309249878,-0.2226379811763763,-28.11634826660156,-42.41468811035156,7.071533203125,2
1596229820.20547,81,0,102152.40891625,2.387778787096035,-0.7752021122140206,1.284132474114261,0.8437498211860657,1.701101303100586,-1.208106756210327,0.06421215832233429,-0.338710606098175,-0.09860855340957642,2,0.4855077244104554,0.4041036684041998,0.6061003384970323,0.4833473865762623,-0.1978878825902939,-0.9591925144195557,-0.201964944601059,-26.87599182128906,-42.73949432373047,7.52313232421875,2
1596229820.23578,82,0,102152.43901425,2.343700350269438,-0.7172265131491239,1.307641478192353,-0.03108369559049606,-0.8279100656509399,-0.4173889756202698,0.4731181859970093,-0.4621569514274597,-0.4462717771530151,2,0.4779480452950577,0.4165878026892236,0.6019787889525086,0.4854294129330233,-0.170981228351593,-0.9655741453170776,-0.196040540933609,-26.00917816162109,-43.15127563476562,7.527740478515625,2
1596229820.267151,83,0,102152.46911225,2.311499644156146,-0.7261118109648217,1.31018000565435,-0.1652911305427551,-1.318474650382996,-0.18567955493927,0.2027340233325958,0.04799962043762207,-0.0334780216217041,2,0.4873560398777975,0.4076076995299245,0.591121635380639,0.4969055997180647,-0.171088308095932,-0.9662313461303711,-0.1926801055669785,-25.19181823730469,-43.67461395263672,7.898773193359375,2
1596229820.295921,84,0,102152.49921025,2.294984848589066,-0.7265284538093232,1.317179348599365,0.4179487228393555,0.4351291954517365,-0.4586518406867981,-0.4268332421779633,0.06944125890731812,-0.08567517995834351,2,0.4911993131534543,0.4061390394233875,0.5846702651928105,0.5019310675475016,-0.1666716635227203,-0.9680112600326538,-0.1875486373901367,-24.69058990478516,-43.51316070556641,8.4552001953125,2
1596229820.332124,85,0,102152.52930725,2.255314365919255,-0.6627727692813347,1.342565452557775,0.4228771924972534,0.7779524922370911,-0.94968581199646,-0.2560939192771912,0.08764874935150146,0.06844431161880493,2,0.4823384833134969,0.4221049655831111,0.5821339172808059,0.5002969641356074,-0.1392155140638351,-0.9740681648254395,-0.1783539652824402,-24.06276702880859,-44.11302185058594,8.581817626953125,2
1596229820.356063,86,0,102152.55940525,2.203241428809267,-0.6100599005266053,1.364942617679251,0.2549659013748169,-0.7361388802528381,-0.4516686499118805,0.5047649145126343,0.07739502191543579,0.07224768400192261,2,0.4798841269687334,0.4312139390165987,0.5745645870189726,0.5036281634264516,-0.1171058788895607,-0.9788868427276611,-0.1675315201282501,-23.29503631591797,-44.47909545898438,8.9024658203125,2
1596229820.389083,87,0,102152.58950325,2.194571555166295,-0.6317355768382206,1.371013907596488,0.1129315495491028,-0.9398691058158875,0.03045456111431122,0.4104211926460266,-0.1284884214401245,0.2139880657196045,2,0.4884133235707402,0.4258814352112097,0.5651653767792655,0.5105541491367336,-0.1171975359320641,-0.9801098108291626,-0.160154864192009,-22.27532958984375,-44.60335540771484,9.65283203125,2
1596229820.416378,88,0,102152.61960125,2.19759798497487,-0.6576687788623067,1.377592532080058,0.2158181667327881,-0.5874122381210327,-0.3310829102993011,-0.1022550463676453,-0.1338852643966675,-0.1112461686134338,2,0.4955594343013078,0.4224252347693318,0.5574329113566119,0.5150206403168633,-0.1173668429255486,-0.9813941121101379,-0.1519555300474167,-22.19973754882812,-44.45506286621094,10.16351318359375,2
1596229820.450313,89,0,102152.64969925,2.1990950200702,-0.6676734477717583,1.389401162395015,0.4607285261154175,-0.1472353786230087,-0.05966639146208763,0.02552956342697144,0.08921420574188232,-0.1086302995681763,2,0.4988781166748727,0.4246046310835608,0.5514869925012391,0.5164238322395142,-0.111697681248188,-0.9835929870605469,-0.141663059592247,-21.64381408691406,-44.65841674804688,11.07040405273438,2
1596229820.476367,90,0,102152.67979725,2.229515951133617,-0.7043699309464128,1.398061193451428,0.1900809556245804,-0.2869496047496796,-0.02756675705313683,0.1731517016887665,-0.06924372911453247,0.1916184425354004,2,0.5030524486122954,0.4259711225807929,0.5473039184287871,0.5156987278629882,-0.1112996190786362,-0.9851183295249939,-0.1309736669063568,-21.550537109375,-44.61582946777344,11.68832397460938,2
1596229820.512551,91,0,102152.70989525,2.268686307503113,-0.749807149592004,1.401501477794522,0.2302652299404144,-0.2482322007417679,0.2152701020240784,0.2350415289402008,-0.04054379463195801,0.02016305923461914,2,0.5072959942503947,0.4254407398574913,0.5447803723957689,0.5146505171551378,-0.1148232072591782,-0.9857038259506226,-0.1233019009232521,-21.59975433349609,-44.98074340820312,12.03567504882812,2
1596229820.536612,92,0,102152.73999325,2.326856849018308,-0.8180576250128815,1.400886310387617,0.2889236211776733,-0.376081109046936,0.2545402944087982,0.0459865927696228,0.05096465349197388,-0.1364008784294128,2,0.5134979776701105,0.4225167700866194,0.5425162030953598,0.5132986124344767,-0.1234074011445045,-0.9855999946594238,-0.1155988126993179,-21.82081604003906,-44.44158172607422,12.61715698242188,2
1596229820.566651,93,0,102152.77009125,2.394358240830526,-0.8932611344224732,1.399056456717416,0.2176520228385925,-0.2086154818534851,0.3270336985588074,-0.04419395327568054,0.01300597190856934,0.03932833671569824,2,0.5196362909530399,0.4200154399264158,0.5409807775652896,0.510788382833118,-0.1331484764814377,-0.9852889180183411,-0.1071303114295006,-21.79165649414062,-44.17814636230469,13.11087036132812,2
1596229820.599745,94,0,102152.80018925,2.463078582251806,-0.9680604813214339,1.39769367210381,0.306533008813858,-0.2861113250255585,0.2535338401794434,0.1295030117034912,-0.008761167526245117,0.005619168281555176,2,0.5254583536206672,0.4184168562255308,0.5393864847568953,0.5078217058830882,-0.1418879479169846,-0.9850550889968872,-0.0976417064666748,-22.06253814697266,-43.80740356445312,13.45489501953125,2
1596229820.627325,95,0,102152.83028725,2.520268737411123,-1.036555072833068,1.390899345655496,0.03333024680614471,-0.5774120092391968,0.4478436708450317,-0.03460410237312317,0.04461055994033813,0.1794943809509277,2,0.5322751984751551,0.413677561029821,0.5379841870549632,0.5060898570762333,-0.1539952456951141,-0.9838621020317078,-0.09110797941684723,-22.14097595214844,-43.49685668945312,13.93292236328125,2
1596229820.657131,96,0,102152.86038425,2.548685033286254,-1.07741285997847,1.385272194466282,0.1189387142658234,-0.1316029727458954,0.02839764021337032,-0.3015523254871368,0.01525396108627319,0.06864333152770996,2,0.5377103892912779,0.4088841771540672,0.5360562157130024,0.5062854510525042,-0.1624617725610733,-0.9828397035598755,-0.08736253529787064,-22.46482086181641,-43.16890716552734,14.50897216796875,2
1596229820.68879,97,0,102152.890482875,2.570360896417542,-1.094090610474158,1.386029628065472,0.1091922521591187,0.396096259355545,0.1571540385484695,-0.009295642375946045,0.0375053882598877,0.04550439119338989,2,0.5376938382074719,0.4107744148050602,0.536805359019583,0.5039739028954399,-0.1632346957921982,-0.9829791188240051,-0.08429943025112152,-22.40454864501953,-43.25035858154297,14.57504272460938,2
1596229820.717267,98,0,102152.920580875,2.600445009835714,-1.112452619516022,1.381662696776983,0.09902407974004745,0.2864775359630585,0.1827191859483719,0.003911048173904419,-0.02560335397720337,-0.01348483562469482,2,0.5367564623878534,0.4126732491587768,0.5408002683634436,0.4991275541080064,-0.1686028987169266,-0.9821674823760986,-0.08318658173084259,-23.03753662109375,-42.9444580078125,14.41714477539062,2
1596229820.750373,99,0,102152.950678875,2.645440748807615,-1.154631049413559,1.379094294147718,0.2745256125926971,-0.1205776259303093,0.2726857662200928,0.2160405814647675,-0.005816817283630371,-0.06668305397033691,2,0.5390868325948948,0.4133693391695569,0.5414449805670113,0.4953263824664675,-0.1742662340402603,-0.9816813468933105,-0.07702235132455826,-23.25186157226562,-42.57672119140625,14.29974365234375,2
1596229820.777433,100,0,102152.980776875,2.677216933082447,-1.19331430482747,1.36970486976541,-0.005025672726333141,-0.3909545540809631,0.4106757938861847,0.0809655487537384,-0.01072502136230469,0.009137928485870361,2,0.5439121796373839,0.4090840154419112,0.5417125010341155,0.4933124545603578,-0.1856755763292313,-0.9798491597175598,-0.07361961901187897,-23.55116271972656,-42.57914733886719,14.81295776367188,2
1596229820.80841,101,0,102153.010874875,2.689079084859641,-1.21589391748051,1.360973439543397,-0.06678909063339233,-0.3153375685214996,0.2149076014757156,-0.07866322994232178,0.02120709419250488,0.0263744592666626,2,0.5484997574502559,0.4036810959675517,0.5411183668721374,0.4933359606496529,-0.1953057795763016,-0.9780678153038025,-0.07237917929887772,-23.89471435546875,-42.62635040283203,14.98532104492188,2
1596229820.837617,102,0,102153.040972875,2.703553821523518,-1.235163396987192,1.353844391759147,0.08219026029109955,0.006948554888367653,0.2768343985080719,0.01264667510986328,0.02558267116546631,0.0589146614074707,2,0.5515595969527662,0.4004165497141119,0.5415227043269417,0.4921397345541602,-0.203242301940918,-0.9765580892562866,-0.07089719176292419,-24.10897064208984,-42.37098693847656,15.04434204101562,2
1596229820.871149,103,0,102153.071070875,2.716952676389167,-1.247748405164168,1.346633787094586,-0.03507176414132118,-0.08441638201475143,0.2053043991327286,-0.08968949317932129,0.01240265369415283,-0.01107573509216309,2,0.5530874134080395,0.3985104246003304,0.5434773853475593,0.4898120872136855,-0.2107905596494675,-0.9749805927276611,-0.07056751102209091,-24.2359619140625,-42.25438690185547,15.24237060546875,2
1596229820.899221,104,0,102153.101168875,2.720610545296418,-1.254804602145614,1.342145811255233,0.006129182409495115,-0.073487788438797,0.1672710478305817,0.02451977133750916,0.02114725112915039,-0.02278876304626465,2,0.5547799965679228,0.396232705809972,0.5437419961773714,0.489452070194844,-0.2154405266046524,-0.9739731550216675,-0.07043759524822235,-24.63669586181641,-42.10014343261719,15.1641845703125,2
1596229820.931347,105,0,102153.131265875,2.730409172158976,-1.264298160069013,1.336714993127863,0.03099198825657368,0.09258802980184555,0.146471306681633,-0.1105893850326538,0.01457571983337402,0.0005702972412109375,2,0.556042621354779,0.3947461549345236,0.5450912937542143,0.4877166160586206,-0.2211394608020782,-0.9727278351783752,-0.06998415291309357,-24.56309509277344,-41.87772369384766,15.19573974609375,2
1596229820.957945,106,0,102153.161363875,2.740238792478748,-1.266421242920633,1.335284346168448,0.07432068884372711,0.3557891249656677,0.04725028201937675,-0.06267669796943665,0.03952229022979736,-0.01364320516586304,2,0.5548433611041339,0.3964631992433361,0.5473095933866136,0.4851989009725304,-0.2226151674985886,-0.9723950028419495,-0.06993155181407928,-25.08629608154297,-41.84361267089844,15.056884765625,2
1596229820.988738,107,0,102153.191461875,2.748537154156427,-1.265123168681125,1.333958205741187,0.0390055775642395,0.2921363711357117,0.05358940362930298,-0.03099086880683899,0.004356563091278076,0.02876019477844238,2,0.5529928695492018,0.3986160718654811,0.5500612510328868,0.4824277347004042,-0.2237530052661896,-0.9720847010612488,-0.0706082284450531,-25.47875213623047,-41.65578460693359,15.08438110351562,2
1596229821.018252,108,0,102153.221559875,2.760406343921459,-1.268403408351668,1.333116413598832,0.1156772598624229,0.2427719682455063,0.03928240388631821,-0.007260560989379883,0.02673888206481934,-0.04439902305603027,2,0.5516245977976699,0.4008135306568018,0.5522539046436589,0.4796606045662067,-0.2247647494077682,-0.9718868732452393,-0.07011763006448746,-25.53398132324219,-41.71936798095703,14.81723022460938,2
1596229821.048357,109,0,102153.251657875,2.769969483894551,-1.27244462693713,1.331810549776804,-0.0318550132215023,0.09911073744297028,0.09649106860160828,0.09006372094154358,-0.01028621196746826,0.03431200981140137,2,0.5509805293873328,0.4020318318360029,0.5538045511983278,0.47758896569831,-0.2262591123580933,-0.9715785384178162,-0.06958172470331192,-25.71982574462891,-41.79850006103516,14.93408203125,2
1596229821.078373,110,0,102153.281755875,2.767272574596872,-1.271324017322449,1.328381735658834,-0.02138431742787361,-0.1602638065814972,0.1115545853972435,0.08663201332092285,0.00861436128616333,0.03728926181793213,2,0.5516272889645887,0.4003730039770914,0.5544543786224176,0.477481869958526,-0.2293626368045807,-0.9707611799240112,-0.07081758230924606,-25.75904846191406,-41.4869384765625,14.7745361328125,2
1596229821.108286,111,0,102153.311853875,2.767952910154075,-1.275987126181937,1.323857598366866,-0.04192368313670158,-0.05754674971103668,0.1272672414779663,-0.05585858225822449,0.007305562496185303,0.01601272821426392,2,0.5533315379907557,0.3978854265334047,0.5546259553571733,0.477390176876888,-0.2338908761739731,-0.9696652293205261,-0.07102279365062714,-25.95022583007812,-41.41428375244141,15.13211059570312,2
1596229821.138648,112,0,102153.341951875,2.771130595808315,-1.277687521458149,1.321433078380059,0.02205248922109604,0.1467628180980682,0.1002664417028427,-0.006200253963470459,0.0320470929145813,-0.01151919364929199,2,0.5534655435810782,0.3975222202711082,0.5556060051416996,0.4763966797349386,-0.2362610250711441,-0.96906977891922,-0.07130395621061325,-26.23281860351562,-41.90234375,14.97805786132812,2
1596229821.168598,113,0,102153.372048875,2.77678626205316,-1.279922660571718,1.318092229901848,-0.01811908558011055,0.009587753564119339,0.1297599226236343,0.021394282579422,-0.004850208759307861,0.02172267436981201,2,0.5533706287343012,0.3974028913993661,0.5572840157569888,0.4746432952680188,-0.2395199835300446,-0.9682399034500122,-0.07170377671718597,-26.06186676025391,-41.09846496582031,15.13412475585938,2
1596229821.198626,114,0,102153.402146875,2.778043006902446,-1.282425956407362,1.314751153626874,-0.03594331443309784,-0.04672379419207573,0.0830889418721199,-0.02839881181716919,0.022510826587677,0.009061992168426514,2,0.5542279951842433,0.3960044458538375,0.5578378347097444,0.474161000904138,-0.2427989542484283,-0.9673991203308105,-0.07202361524105072,-26.30532836914062,-41.18157196044922,14.87957763671875,2
1596229821.22889,115,0,102153.432244875,2.7781477564297,-1.282739461499238,1.308501927206237,0.09660501033067703,-0.3059395551681519,0.2889420986175537,0.1493069529533386,-0.01684689521789551,-0.1211886405944824,2,0.5550573031387245,0.3938015294197991,0.5595450659995546,0.4730125889370667,-0.2486129850149155,-0.9657976031303406,-0.07366348803043365,-26.3720703125,-40.95139312744141,14.76431274414062,2
1596229821.258946,116,0,102153.462342875,2.786690029819873,-1.299923668158782,1.305728801317094,-0.3201864659786224,-0.5050060749053955,0.1064259111881256,-0.04144400358200073,0.05311465263366699,0.06829702854156494,2,0.5585222323555159,0.3911578134926299,0.5575631588160909,0.4734676708651295,-0.2524216771125793,-0.9650748372077942,-0.07009696215391159,-26.60842895507812,-40.99088287353516,14.79302978515625,2
1596229821.290024,117,0,102153.492440875,2.791209087880497,-1.314692523815584,1.302510686969573,0.2456410676240921,-0.185015931725502,0.09745451062917709,-0.1097363829612732,0.02111208438873291,-0.02647298574447632,2,0.5621579204657537,0.3878201959642209,0.5553960411981799,0.4744566705615756,-0.2564328014850616,-0.9642267823219299,-0.06714793294668198,-26.50630950927734,-40.54811859130859,15.2216796875,2
1596229821.319232,118,0,102153.522538875,2.793975374333568,-1.317209929154378,1.303410782053881,-0.05037902668118477,0.226159855723381,-0.008401947095990181,-0.03636637330055237,0.01810353994369507,0.009333968162536621,2,0.5622048771577004,0.3883084607885281,0.5550939882419673,0.4743551652152538,-0.2557608485221863,-0.9644649624824524,-0.0662844330072403,-26.47086334228516,-40.74459075927734,15.29739379882812,2
1596229821.350379,119,0,102153.552636875,2.80363067157027,-1.315807714095573,1.303756951908325,0.08595040440559387,0.4524111747741699,0.0007857210002839565,0.001648545265197754,0.02796179056167603,0.02914315462112427,2,0.5598878235754701,0.3914667959942927,0.5576741146256391,0.4714645891385694,-0.255344420671463,-0.9645563364028931,-0.06655874848365784,-26.65503692626953,-40.75020599365234,15.22210693359375,2
1596229821.379375,120,0,102153.582734875,2.813980837064331,-1.308500489729591,1.304142913072155,0.09821480512619019,0.6522651314735413,0.03266740590333939,0.03154599666595459,0.001942038536071777,0.04552149772644043,2,0.5557538787251673,0.3962000883559427,0.5620339603461745,0.4672053114787822,-0.2544915378093719,-0.9646581411361694,-0.06832623481750488,-26.78269958496094,-40.75736236572266,14.80337524414062,2
1596229821.412592,121,0,102153.612832875,2.814703481439363,-1.29568253430963,1.303324934856437,-0.05982441455125809,0.2676717042922974,0.01714108884334564,0.01018187403678894,0.006270468235015869,0.0627867579460144,2,0.5521017077644415,0.3991055492983249,0.5659792125538666,0.4642907072709551,-0.2543541789054871,-0.964442253112793,-0.07179693132638931,-26.95698547363281,-40.58393096923828,14.48614501953125,2
1596229821.439475,122,0,102153.642929875,2.807335594128193,-1.28214529006315,1.301773346594955,-0.1058302223682404,0.1522566080093384,0.02134315669536591,-0.0165945291519165,0.01645898818969727,-0.0138353705406189,2,0.5499313651598726,0.3996820659192956,0.5684321439292407,0.4633730709629765,-0.2547935247421265,-0.9640310406684875,-0.07565947622060776,-27.57370758056641,-41.00590515136719,14.366455078125,2
1596229821.469661,123,0,102153.673027875,2.795350235104168,-1.268047807037475,1.300932733682342,-0.068180151283741,0.01241220068186522,-0.020368542522192,0.0333903431892395,-0.006670951843261719,-0.111948549747467,2,0.548418029929671,0.399368354849428,0.5697599295445007,0.4638059584101263,-0.254474401473999,-0.9638072848320007,-0.07948516309261322,-27.59353637695312,-40.87595367431641,14.04409790039062,2
1596229821.499786,124,0,102153.703125875,2.786240744563286,-1.262908139825587,1.3006314875131,-0.0382673591375351,-0.1362071633338928,-0.005316301248967648,-0.04734262824058533,0.046866774559021,-0.06488019227981567,2,0.5488066689313955,0.3979586473179298,0.5691391794750938,0.4653179601928299,-0.2543401420116425,-0.9637269377708435,-0.080880306661129,-27.278564453125,-40.58692169189453,14.22299194335938,2
1596229821.529912,125,0,102153.733223875,2.787065462220248,-1.265065473922736,1.300472443588115,0.02389415167272091,0.02343131229281425,0.01672173663973808,0.02341568470001221,0.007349550724029541,0.005853176116943359,2,0.5492753447157604,0.3976278744341671,0.5687832724179077,0.4654826524195492,-0.254659503698349,-0.9636844396591187,-0.08037734031677246,-27.25778198242188,-40.61188507080078,14.2354736328125,2
1596229821.56029,126,0,102153.763321875,2.78565165330967,-1.262168501045416,1.300191516300784,-0.006541736423969269,0.05468491837382317,-0.00603351928293705,0.003680318593978882,-0.01291394233703613,0.01455748081207275,2,0.5487657027109518,0.397816080742233,0.5693290658106082,0.4652558281090386,-0.2546840310096741,-0.9636093974113464,-0.08119713515043259,-27.28824615478516,-40.72174072265625,14.11862182617188,2
1596229821.602287,127,0,102153.793419875,2.783997717227069,-1.259641039438768,1.300020026830321,-0.02985764294862747,-0.09479508548974991,0.03117304667830467,0.02834928035736084,0.007379889488220215,0.03190749883651733,2,0.5483953500186978,0.3978908206612462,0.5696854208847434,0.4651920763834555,-0.2546343505382538,-0.9635635614395142,-0.08189086616039276,-27.27969360351562,-40.72812652587891,14.16970825195312,2
