loggingTime,loggingSample,identifierForVendor,motionTimestamp_sinceReboot,motionYaw,motionRoll,motionPitch,motionRotationRateX,motionRotationRateY,motionRotationRateZ,motionUserAccelerationX,motionUserAccelerationY,motionUserAccelerationZ,motionAttitudeReferenceFrame,motionQuaternionX,motionQuaternionY,motionQuaternionZ,motionQuaternionW,motionGravityX,motionGravityY,motionGravityZ,motionMagneticFieldX,motionMagneticFieldY,motionMagneticFieldZ,motionMagneticFieldCalibrationAccuracy
1596229812.482514,1,0,102144.673742625,2.533105376083083,-1.173492318410517,1.257570410151243,0.05342285335063934,0.2056459337472916,-0.02304699085652828,-0.01737141609191895,0.00234687328338623,0.02323758602142334,2,0.5739271077368883,0.3331590066352536,0.5449950972888756,0.5124383081225576,-0.2841280400753021,-0.9513445496559143,-0.1192255020141602,-25.75321197509766,-41.56529998779297,14.49502563476562,2
1596229812.500689,2,0,102144.703840625,2.536628139123859,-1.177837484100448,1.260598519753343,0.08306015282869339,-0.2259711623191833,-0.1368155181407928,-0.009842514991760254,0.0399852991104126,-0.05603718757629395,2,0.5743545141580603,0.3341762742425024,0.5437399352163073,0.5126304595662259,-0.2819811105728149,-0.9522731900215149,-0.1168862208724022,-25.61121368408203,-41.53085327148438,14.3548583984375,2
1596229812.531414,3,0,102144.733938625,2.539465310648083,-1.184462611817622,1.265163256682494,0.06924565136432648,-0.05650121718645096,-0.1018421426415443,-0.01735904812812805,0.01106828451156616,-0.01307022571563721,2,0.5754153246645943,0.334976216880848,0.5411898449392079,0.5136161444833998,-0.2787194848060608,-0.9536566734313965,-0.1133762747049332,-25.58824920654297,-41.67182159423828,14.68759155273438,2
1596229812.560666,4,0,102144.764036625,2.539114511046376,-1.186224668910156,1.268740171788375,0.01401121821254492,-0.05164612829685211,-0.1709321886301041,-0.02216339111328125,0.006109833717346191,0.03280329704284668,2,0.5757401079229807,0.3357394633534854,0.5395153743830825,0.5145148149688311,-0.2757554352283478,-0.9547268152236938,-0.1116046831011772,-25.32117462158203,-41.81914520263672,14.80868530273438,2
1596229812.590691,5,0,102144.794134625,2.530369219230663,-1.172556539397816,1.272784999928758,0.1151701956987381,0.09626181423664093,-0.1192054972052574,-0.02793985605239868,0.02462476491928101,-0.07766890525817871,2,0.5732922132918381,0.3382361905352964,0.5399679352869037,0.5151377292090108,-0.2706423699855804,-0.9559223055839539,-0.1138646379113197,-25.44023895263672,-41.80139923095703,14.6641845703125,2
1596229812.621033,6,0,102144.824232625,2.531060190003625,-1.172447332724462,1.279297309883356,-0.0005052965134382248,-0.1098580807447433,-0.3128174841403961,0.01389583945274353,0.03858089447021484,0.02992773056030273,2,0.572777378415306,0.3408628783031654,0.5382015587692378,0.5158271863114881,-0.2648866772651672,-0.9578141570091248,-0.1114771440625191,-25.12078094482422,-41.830078125,14.92047119140625,2
1596229812.65081,7,0,102144.854330625,2.529309404928059,-1.175885685535358,1.284931420335316,0.07223948091268539,-0.1426852643489838,0.001140978885814548,0.08004632592201233,-0.06024205684661865,-0.02411216497421265,2,0.5736744036001691,0.341546301382879,0.5350494190792645,0.5176541038206826,-0.2602826356887817,-0.9594181180000305,-0.108487606048584,-24.81044006347656,-42.09855651855469,14.87039184570312,2
1596229812.681702,8,0,102144.8844282917,2.534932537919623,-1.182814891344191,1.286062815855897,0.1261457055807114,0.008686489425599575,-0.1136863455176353,-0.08142587542533875,0.04551863670349121,-0.05916488170623779,2,0.5744990545019175,0.341782803524103,0.5341711938146766,0.5174903970153159,-0.2600230574607849,-0.9597365260124207,-0.1062707006931305,-24.64040374755859,-42.10211944580078,15.05783081054688,2
1596229812.711129,9,0,102144.9145262917,2.542705678452367,-1.189687926311022,1.292878615457823,0.1712239384651184,0.01211517862975597,-0.1946644484996796,-0.02097845077514648,0.03907400369644165,-0.008544683456420898,2,0.5745743817550995,0.3447337256167603,0.5321348895147406,0.517547544318013,-0.2546699643135071,-0.961628794670105,-0.1020458787679672,-24.54239654541016,-42.16284942626953,15.16802978515625,2
1596229812.741304,10,0,102144.9446242917,2.558204179352343,-1.206843038490539,1.299934931178869,0.2320585399866104,-0.2055194079875946,-0.1092377901077271,0.1292779147624969,-0.02231228351593018,-0.01110392808914185,2,0.5759715805590246,0.3473250100496472,0.5290653544802297,0.5174087911090359,-0.2500351965427399,-0.96354079246521,-0.0952441543340683,-24.31777954101562,-42.11338043212891,15.33425903320312,2
1596229812.771304,11,0,102144.9747222917,2.575380217799971,-1.233141452815975,1.30244186270316,0.1390120089054108,-0.3801003396511078,0.004962937906384468,0.05046853423118591,0.00901949405670166,0.001881003379821777,2,0.5797385765648548,0.3463888992145003,0.5251532750822046,0.5178144098064894,-0.250172883272171,-0.9642084836959839,-0.08783582597970963,-24.01964569091797,-41.86881256103516,15.88995361328125,2
1596229812.80167,12,0,102145.0048202917,2.586395719182985,-1.250598201136935,1.304248278279428,0.1373241543769836,-0.05220785737037659,-0.07163690775632858,-0.0954747200012207,0.01063239574432373,0.02195650339126587,2,0.5822596412249844,0.3457169154884966,0.5223913625714808,0.5182282890396022,-0.2500142455101013,-0.9646859169006348,-0.0829070508480072,-23.652587890625,-41.91566467285156,16.25836181640625,2
1596229812.831673,13,0,102145.0349182917,2.598853246953301,-1.261123974039537,1.308844018886915,0.1463401913642883,0.07669755816459656,-0.1194119155406952,-0.05381131172180176,0.02567344903945923,-0.004027128219604492,2,0.5824548997344491,0.3482624653940916,0.5211739164936035,0.5175298641314119,-0.2466481477022171,-0.9658862352371216,-0.07891909033060074,-23.65469360351562,-41.93800354003906,16.49679565429688,2
1596229812.86172,14,0,102145.0650162917,2.613531754769963,-1.274745112511334,1.313005015529192,0.1557069271802902,-0.06023161858320236,-0.04830056428909302,0.06762462854385376,-0.02103352546691895,-0.04390621185302734,2,0.5830624758044758,0.3504976914263672,0.5197566473343589,0.5167614504772908,-0.2438538074493408,-0.9669554233551025,-0.07437903434038162,-23.68125915527344,-41.80447387695312,16.7762451171875,2
1596229812.891881,15,0,102145.0951142917,2.630334956737081,-1.292439826502342,1.313200271641043,0.1391710042953491,-0.01517635397613049,0.09124318510293961,0.07631900906562805,0.01684314012527466,0.01971149444580078,2,0.5846920427664786,0.3509057138077515,0.5188692535684888,0.5155336287827585,-0.2449500560760498,-0.96700519323349,-0.0700007900595665,-23.67160034179688,-41.73371124267578,17.19467163085938,2
1596229812.921926,16,0,102145.1252122917,2.655394979685437,-1.315695782277776,1.312570332767388,0.3410336971282959,0.06325630843639374,0.07390483468770981,-0.0287703275680542,0.002550244331359863,-0.002830266952514648,2,0.5863846349240882,0.352041548276453,0.5186900529840692,0.5130110725788785,-0.2471013367176056,-0.9668444991111755,-0.06443961709737778,-23.6536865234375,-41.80288696289062,17.1058349609375,2
1596229812.951908,17,0,102145.1553092917,2.693168511288048,-1.352092211142598,1.312001429990742,0.2383500635623932,-0.1172232031822205,0.1086069941520691,0.07687434554100037,0.002494394779205322,0.03417140245437622,2,0.5892156582838235,0.3536418547376286,0.5178143792194588,0.5095395900694984,-0.2498196363449097,-0.9666990637779236,-0.05552469193935394,-23.55827331542969,-41.24864196777344,17.60205078125,2
1596229812.982101,18,0,102145.1854072917,2.722767231439682,-1.386719867930645,1.307695006187841,0.2849279940128326,-0.2744772136211395,0.2261692583560944,0.06500822305679321,0.05919957160949707,-0.09539175033569336,2,0.5934714725793445,0.3521216228589468,0.5163235007704581,0.5071606071499868,-0.255682110786438,-0.9655880331993103,-0.04760394617915154,-23.71251678466797,-40.94672393798828,18.21890258789062,2
1596229813.012118,19,0,102145.2155052917,2.75320192885258,-1.425813117791322,1.303529870771017,0.2193653583526611,-0.3507430553436279,0.1609884649515152,-0.0289594829082489,0.003298819065093994,0.02885317802429199,2,0.5987439830058046,0.3498970332128021,0.5135351971378495,0.5053307842041579,-0.2613247334957123,-0.9644964337348938,-0.03815541788935661,-23.84993743896484,-40.62972259521484,18.87030029296875,2
1596229813.042253,20,0,102145.2456032917,2.78217802887063,-1.461236950607758,1.29821392492226,0.2011122703552246,-0.2675118148326874,0.2508274614810944,0.07847884297370911,-0.005385398864746094,-0.01579487323760986,2,0.6035179953995183,0.3479192197748609,0.5116388392326314,0.5029352139431523,-0.2676048278808594,-0.9630788564682007,-0.02943649142980576,-23.95527648925781,-40.24664306640625,19.4422607421875,2
1596229813.07218,21,0,102145.2757012917,2.791799384666467,-1.478768607445589,1.290917302956463,0.0528339222073555,-0.3956291079521179,0.2497630268335342,0.07252466678619385,-0.02125716209411621,0.03292644023895264,2,0.6074058485588798,0.3440425006097645,0.5106991450612504,0.5018756761380293,-0.2750701606273651,-0.9610888361930847,-0.0253857858479023,-24.09886169433594,-40.14024353027344,19.61175537109375,2
1596229813.102554,22,0,102145.3057992917,2.811057848566567,-1.510493657384601,1.283520189637036,0.1753765642642975,-0.4374160468578339,0.2555526196956635,0.007690727710723877,0.07521748542785645,-0.07415813207626343,2,0.6133120251858972,0.3395739164891493,0.5077890503688637,0.5006875423867292,-0.2828254103660583,-0.9590192437171936,-0.01707582920789719,-24.41326904296875,-40.50218963623047,19.71578979492188,2
1596229813.132512,23,0,102145.3358972917,2.835201659885325,-1.545634930033823,1.277350256638011,0.3509840369224548,-0.3144298195838928,0.2168378829956055,0.01145631074905396,-0.01350194215774536,-0.1019099950790405,2,0.6191026470622566,0.336263725192996,0.5045818996339515,0.4990348536994269,-0.28916135430336,-0.9572528004646301,-0.007277239114046097,-24.2625732421875,-39.96094512939453,20.60531616210938,2
1596229813.162626,24,0,102145.3659952917,2.877275435540789,-1.593446755629078,1.268382367613578,0.4401153922080994,-0.1300162374973297,0.2926086187362671,-0.08251720666885376,0.09097760915756226,-0.0241093635559082,2,0.6255838238243809,0.3346902028377028,0.5023805662899636,0.4942076519730602,-0.297749400138855,-0.954620361328125,0.00674530491232872,-24.337646484375,-39.67356872558594,20.82815551757812,2
1596229813.193397,25,0,102145.3960932917,2.928818999421093,-1.645553194522457,1.265128386904103,0.5136625170707703,-0.01602429896593094,-0.1322973072528839,-0.241415947675705,0.1298006772994995,-0.05654478073120117,2,0.6305638768744999,0.3370860618979014,0.4994607008122584,0.4891841280651381,-0.3000894486904144,-0.953646183013916,0.02247563190758228,-24.53108215332031,-39.07400512695312,21.42013549804688,2
1596229813.222821,26,0,102145.4261912917,2.984325990689634,-1.692591692485225,1.268818248816002,0.5899521708488464,0.3386310935020447,-0.1550437957048416,-0.1036646664142609,-0.03157168626785278,-0.03727352619171143,2,0.632117893997804,0.3442292075306073,0.497288973995574,0.4843932480222657,-0.2952059209346771,-0.9547500610351562,0.03613355755805969,-24.33946228027344,-39.14231109619141,21.80584716796875,2
1596229813.252862,27,0,102145.4562892917,3.038685566820926,-1.736897889851297,1.270317921346033,0.4735259413719177,0.1322854459285736,-0.1277915388345718,0.04760631918907166,0.029837965965271,0.0471339225769043,2,0.6333609903438635,0.3511725047502052,0.4960439781957245,0.4790324933188304,-0.2919037342071533,-0.9551950097084045,0.04893654584884644,-24.37350463867188,-38.56344604492188,22.48056030273438,2
1596229813.283142,28,0,102145.4863872917,3.08402426336546,-1.774818510603655,1.271882803020287,0.3535546958446503,0.3379687964916229,-0.1288599818944931,0.01113113760948181,-0.03281915187835693,0.134772777557373,2,0.6343850950410631,0.3569144642510711,0.4945221684459169,0.4749896994550549,-0.288373589515686,-0.9556570053100586,0.0596647672355175,-24.26300811767578,-38.52541351318359,22.88919067382812,2
1596229813.313019,29,0,102145.5164852917,3.11732447924232,-1.790504593730688,1.273254530679137,0.2614811360836029,0.516284704208374,-0.04327204450964928,0.1407172083854675,-0.01483309268951416,0.1181267499923706,2,0.6319616889522528,0.3641043585405139,0.4971586769067989,0.4699847941467625,-0.2861234545707703,-0.9560600519180298,0.06389512121677399,-24.35659790039062,-38.5897216796875,22.9503173828125,2
1596229813.343315,30,0,102145.5465832917,3.131446978783447,-1.795627658380519,1.27058874577071,0.03988122940063477,0.08680815249681473,0.08886057883501053,0.1007227599620819,-0.03287070989608765,0.196068286895752,2,0.6312704543006418,0.3666900779777263,0.4993486725672253,0.466569211959484,-0.2882755398750305,-0.9552751183509827,0.06592799723148346,-24.67594146728516,-38.54362487792969,22.88827514648438,2
1596229813.373219,31,0,102145.5766802917,3.11888955168013,-1.782750770598428,1.269523817346702,-0.2437577843666077,-0.06420203298330307,0.03244978189468384,-0.01147815585136414,0.01835352182388306,0.2516665458679199,2,0.6305937411323748,0.3654637472197739,0.5006802450138994,0.4670191504218265,-0.2900945246219635,-0.9549596905708313,0.0624244324862957,-24.79222869873047,-38.46073913574219,22.80831909179688,2
1596229813.403535,32,0,102145.6067782917,3.095357089725451,-1.758680427620364,1.269771972121265,-0.1984470188617706,0.2335942387580872,0.05931788310408592,-0.07106733322143555,-0.03438276052474976,-9.047985076904297e-05,2,0.6287898959710754,0.3637490182179588,0.5027066771752866,0.4686105435877784,-0.2912805080413818,-0.9550332427024841,0.05538016185164452,-25.10443115234375,-38.41654968261719,22.28280639648438,2
1596229813.433517,33,0,102145.6368762917,3.084585969561767,-1.737532566903489,1.269306882201621,-0.0141717130318284,0.4550390243530273,-0.03166182339191437,-0.09374913573265076,0.04798144102096558,-0.1473987102508545,2,0.6255175700486908,0.3651968758825777,0.5069100230206168,0.4673340790945408,-0.2928243577480316,-0.9548952579498291,0.04928197711706161,-25.29213714599609,-38.65194702148438,21.81887817382812,2
1596229813.463618,34,0,102145.6669742917,3.090378730395002,-1.729748564955026,1.271418189397532,0.03701344504952431,0.4233056008815765,-0.03851919993758202,0.02030465006828308,-0.008178114891052246,-0.05449342727661133,2,0.6220119208244888,0.3693807284834443,0.5102651097064138,0.4650681619614948,-0.2912075221538544,-0.9555200934410095,0.04668190330266953,-25.4801025390625,-38.72407531738281,21.64205932617188,2
1596229813.49367,35,0,102145.6970722917,3.096109650212078,-1.725878282937061,1.268856256338165,0.08871044963598251,0.2425237596035004,0.1361261606216431,0.1600667238235474,0.02462208271026611,-0.02684783935546875,2,0.6205217322285658,0.371374549521114,0.5133083902976492,0.4621127571927532,-0.2938041985034943,-0.9547613859176636,0.04593255370855331,-25.87080383300781,-38.53288269042969,21.47567749023438,2
1596229813.523834,36,0,102145.7271702917,3.108404387504663,-1.727840503339662,1.263994350738797,0.1782301813364029,0.4617295861244202,0.1553806364536285,-0.00448077917098999,-0.008058726787567139,-0.0678093433380127,2,0.6198056717884415,0.3734409178666794,0.5164913554922088,0.4578421086037435,-0.2982945740222931,-0.9533042907714844,0.04723437875509262,-26.081298828125,-38.22747039794922,21.58938598632812,2
1596229813.55387,37,0,102145.7572682917,3.118732362773474,-1.717853668978583,1.258722954610133,0.0967128649353981,0.8612417578697205,0.151803731918335,-0.1071696281433105,-0.00431448221206665,0.1124449968338013,2,0.6164312649236365,0.3775008241033038,0.5229611338552183,0.4516825613381498,-0.3037181198596954,-0.9516990184783936,0.04498875141143799,-26.45248413085938,-38.22304534912109,21.37237548828125,2
1596229813.584024,38,0,102145.7873662917,3.117924053412334,-1.685074368041329,1.251600286447145,-0.08822503685951233,1.281669974327087,0.4025813937187195,0.1052907705307007,-0.1101467609405518,0.3284541368484497,2,0.6094710883544436,0.3826700475386595,0.534230532284908,0.4435156761871417,-0.3117558062076569,-0.9494879841804504,0.03578274697065353,-27.69757843017578,-38.00841522216797,20.48446655273438,2
1596229813.614065,39,0,102145.8174642917,3.089395410773389,-1.629341389280954,1.240416899660632,-0.3999705910682678,0.476616382598877,0.1606813967227936,0.1079757213592529,0.1191622018814087,0.03543686866760254,2,0.6022127528260195,0.383184617463548,0.5471014937822465,0.437252091579337,-0.3238464295864105,-0.9459193348884583,0.01898130215704441,-28.32833862304688,-37.71854400634766,19.72430419921875,2
1596229813.64421,40,0,102145.8475622917,3.036676579897327,-1.579742728670195,1.231763341757662,-0.8010594248771667,-0.237898662686348,0.7329735159873962,0.4413465857505798,-0.1601462960243225,0.2006891965866089,2,0.6002869007798669,0.3756904189647092,0.5522939584954683,0.4398676813444979,-0.3325615227222443,-0.9430767297744751,0.002975308336317539,-28.94733428955078,-37.86112976074219,18.812744140625,2
1596229813.674235,41,0,102145.8776605,2.941374380678307,-1.504469046690043,1.201425680413749,-1.407474517822266,-0.743866503238678,0.9503272175788879,0.123503565788269,-0.02495002746582031,0.3832716941833496,2,0.6020786865521375,0.3543120243509684,0.5607222438878462,0.4444713707894019,-0.3602347075939178,-0.9325547218322754,-0.02392848953604698,-29.47952270507812,-37.75980377197266,18.35189819335938,2
1596229813.70457,42,0,102145.9077585,2.817442833057536,-1.41417832446452,1.167798080624282,-2.014328241348267,-0.8762725591659546,1.081565499305725,0.09249219298362732,-0.1302833557128906,0.5531226396560669,2,0.6025215570913581,0.3261627013815664,0.568194299347458,0.4557859400532106,-0.3873778879642487,-0.9198892712593079,-0.06117133051156998,-30.29450225830078,-37.49021148681641,17.15274047851562,2
1596229813.73442,43,0,102145.9378565,2.677782986394933,-1.315325729029156,1.112138187862457,-2.456912040710449,-1.171838164329529,1.794191718101501,0.3294726014137268,-0.224987804889679,0.2242165803909302,2,0.6012880752514351,0.2872483474279371,0.5800330301184906,0.4685111611182614,-0.428375780582428,-0.8966473937034607,-0.1118820756673813,-30.89530944824219,-37.84814453125,16.16729736328125,2
1596229813.764635,44,0,102145.9679535,2.520005459650511,-1.228258219578432,1.02256594392438,-4.394658088684082,-3.337065935134888,2.207376003265381,-0.3221483826637268,-0.1364706754684448,-0.7067179679870605,2,0.6007703701637614,0.2270433647564409,0.5923866874663407,0.4864198023893393,-0.4908999502658844,-0.8534481525421143,-0.1750525385141373,-32.88722991943359,-37.02896118164062,13.88861083984375,2
1596229813.794941,45,0,102145.9980515,2.336550604822999,-1.202023315624994,0.9272093666925213,-4.255030155181885,-4.495427131652832,1.708195805549622,-0.09651821851730347,-0.1188011765480042,-0.03440332412719727,2,0.6098433541350308,0.1411997299536266,0.5796887878677883,0.521645994290363,-0.5597261786460876,-0.799948513507843,-0.2163074463605881,-33.390869140625,-36.64311981201172,12.71121215820312,2
1596229813.82479,46,0,102146.0281495,2.161132883228359,-1.210227378747147,0.8310613453730025,-5.160549163818359,-5.179777145385742,1.357649803161621,0.004472732543945312,-0.6966079473495483,0.4155169725418091,2,0.6154654996848363,0.04785517917879775,0.555711945630851,0.5568629293673142,-0.630745530128479,-0.7386472225189209,-0.2378242015838623,-33.85367584228516,-36.60031127929688,12.079833984375,2
1596229813.855134,47,0,102146.0582475,1.940888173949514,-1.249043550817103,0.7514368685894702,-6.129593849182129,-8.389728546142578,0.08225969970226288,1.02242374420166,0.03776264190673828,0.2457259893417358,2,0.6169787073045958,-0.06165469865474513,0.5014841541254857,0.6033653161387031,-0.6932107210159302,-0.682689368724823,-0.231071949005127,-32.74018096923828,-37.61155700683594,11.78732299804688,2
1596229813.885227,48,0,102146.0883455,1.706873331703275,-1.400819666293959,0.6996502347648129,-5.579687118530273,-11.59384250640869,0.9071539640426636,1.72600531578064,-0.1007833480834961,0.2772958874702454,2,0.6285348092116954,-0.2005862346719272,0.3960271959115526,0.6386482729160783,-0.754041850566864,-0.6439501047134399,-0.1294183135032654,-30.69596099853516,-39.14816284179688,12.53799438476562,2
1596229813.915312,49,0,102146.1184435,1.547683901869335,-1.64850617508258,0.6325091111761276,-2.828876495361328,-10.31146907806396,3.018688440322876,0.9800689220428467,0.1332833170890808,0.7771395444869995,2,0.6386330679010058,-0.3513610410985332,0.2877985581279376,0.621180435249774,-0.8041125535964966,-0.5911703109741211,0.06261355429887772,-26.74351501464844,-40.23723602294922,17.0533447265625,2
1596229813.945471,50,0,102146.1485415,1.437364565834689,-1.791776647498877,0.5325511422919591,-1.806388258934021,-2.802042484283447,3.484226226806641,-1.413044929504395,1.163171529769897,1.484194397926331,2,0.6196859805808905,-0.4586996002841301,0.2422457265472782,0.5889828849513752,-0.8405649662017822,-0.5077328085899353,0.1888320744037628,-26.300048828125,-39.44808959960938,18.87698364257812,2
1596229813.975219,51,0,102146.1786395,1.43861142298045,-1.753633544685251,0.4901556888521653,2.13249135017395,3.564977407455444,-0.9054573774337769,-2.058012723922729,1.112462997436523,-0.0001593828201293945,2,0.6080799127506725,-0.4587429982998495,0.268510300993967,0.5896574429811855,-0.8675538897514343,-0.4707632660865784,0.1604126393795013,-29.30300903320312,-37.54766082763672,18.76608276367188,2
1596229814.005577,52,0,102146.2087375,1.510114255865241,-1.679514237117687,0.5380722290890986,1.279220223426819,3.055457830429077,-2.206994771957397,-0.3309744596481323,0.3982998728752136,0.6658653020858765,2,0.6210946992373583,-0.4010329312598049,0.2969908575771271,0.6043263617886406,-0.8536284565925598,-0.5124815702438354,0.09317207336425781,-29.42623901367188,-37.75431060791016,18.19186401367188,2
1596229814.035392,53,0,102146.2388355,1.545124875821345,-1.629030915109591,0.5848967367098504,0.6579486727714539,1.221001386642456,-0.7023301124572754,0.751975953578949,-0.4069975018501282,-0.05497574806213379,2,0.6278190437946998,-0.3607029572457892,0.3084516084138516,0.6169230687041092,-0.8323555588722229,-0.5521132946014404,0.04852674901485443,-28.68326568603516,-38.68539428710938,16.83837890625,2
1596229814.065573,54,0,102146.2689335,1.551391832524532,-1.64159431698557,0.5795221009077659,-0.4121175110340118,-1.766117334365845,0.5751286149024963,0.6318578124046326,-0.2037677764892578,-0.01972925662994385,2,0.6300259087161825,-0.3642277066424235,0.3081391831865439,0.6127444719660831,-0.8346283435821533,-0.5476241111755371,0.05918893590569496,-28.58164978027344,-38.849609375,16.81777954101562,2
1596229814.095602,55,0,102146.2990315,1.52408923502133,-1.704961373289776,0.571145334171104,-0.743425190448761,-2.719643831253052,0.1698346436023712,-0.1459768414497375,0.4066487550735474,-0.2936500310897827,2,0.6328824863722018,-0.3946212673599751,0.2825242914381756,0.6032527024157761,-0.8337220549583435,-0.5405959486961365,0.1125323697924614,-27.96324920654297,-38.74416351318359,18.2330322265625,2
1596229814.125827,56,0,102146.3291285,1.50412303506081,-1.74994327078112,0.5688588391176348,-0.394837886095047,-1.03621506690979,0.05154718458652496,-0.4633052349090576,0.3949325084686279,-0.0746532678604126,2,0.6346253326298549,-0.4151081214018928,0.2630300964743382,0.5964486230147187,-0.8290324807167053,-0.5386709570884705,0.1501281261444092,-27.06199645996094,-38.77764129638672,18.83270263671875,2
1596229814.155844,57,0,102146.3592265,1.496206241621381,-1.764879746967781,0.5801052540630529,-0.1282083541154861,-0.2837980389595032,-0.6143683791160583,-0.4128949046134949,0.1514478325843811,-0.08344137668609619,2,0.6365804240812101,-0.4188351819189585,0.2521914487464207,0.5964409591865953,-0.8207011818885803,-0.5481119751930237,0.1613150984048843,-26.19088745117188,-39.07354736328125,19.52523803710938,2
1596229814.185962,58,0,102146.3893245,1.49700037626002,-1.770133274786353,0.5970360962758068,-0.1228244379162788,-0.1489803642034531,-0.4086441993713379,0.06836867332458496,-0.02571868896484375,0.0572965145111084,2,0.6398731849461188,-0.4152636137741587,0.2451023771801465,0.5983669868980115,-0.8106289505958557,-0.5621938109397888,0.1637631207704544,-25.77839660644531,-39.42208099365234,19.30178833007812,2
1596229814.216142,59,0,102146.4194225,1.494316110236557,-1.778796416002535,0.6059353322880972,-0.1998146176338196,-0.4471324980258942,-0.1960545778274536,0.2219105362892151,-0.06378507614135742,0.07657003402709961,2,0.6416356171956551,-0.4161412282428988,0.2385417475524201,0.5985213656858708,-0.8042526245117188,-0.5695311427116394,0.1697395741939545,-25.00125122070312,-39.67025756835938,19.45401000976562,2
1596229814.249048,60,0,102146.4495205,1.486750531462337,-1.787282728718378,0.611418553404524,-0.1783550828695297,-0.316111832857132,-0.07616426795721054,0.2081630229949951,-0.1299207210540771,0.17352294921875,2,0.6418268290229484,-0.4195245848893027,0.2317089170887725,0.598638711855874,-0.7997213006019592,-0.5740296244621277,0.1758851110935211,-24.72695159912109,-39.98123931884766,19.37985229492188,2
1596229814.27618,61,0,102146.4796185,1.484936688697511,-1.793484644915283,0.6114584177115813,0.01856895536184311,-0.1658783107995987,0.1140164583921432,0.289783239364624,-0.06276422739028931,0.06970477104187012,2,0.6421654021829917,-0.4219500319373474,0.2291622460943239,0.5975503126855153,-0.7985928654670715,-0.5740622282028198,0.1808364689350128,-24.51268005371094,-40.42484283447266,19.5477294921875,2
1596229814.306534,62,0,102146.5097165,1.483537260563961,-1.795743074763424,0.6061570113724287,0.05127178505063057,-0.05644937604665756,0.1806590706110001,0.1258276700973511,-0.2083913683891296,-0.0719984769821167,2,0.64138557896453,-0.4245967953264244,0.2298116288215172,0.5962621603693499,-0.8011377453804016,-0.5697133541107178,0.1833157986402512,-24.32386779785156,-40.28877258300781,19.54244995117188,2
1596229814.336406,63,0,102146.5398145,1.481848674934603,-1.79359506933183,0.6010373512249413,-0.07376046478748322,0.03102125413715839,0.2602804899215698,0.04608899354934692,-0.2144481539726257,-0.09660053253173828,2,0.6400559453042346,-0.4259656308164024,0.2317260741965385,0.5959736993992546,-0.8043639063835144,-0.5654983520507812,0.1822366565465927,-24.68278503417969,-40.13594055175781,19.59176635742188,2
1596229814.366658,64,0,102146.5699125,1.476321996211563,-1.790806676890955,0.5952190792503395,-0.05718923732638359,0.04607019573450089,0.03486691415309906,-0.1452277898788452,-0.004232704639434814,-0.1654707193374634,2,0.6377195341987323,-0.4285648261779892,0.2329342806200644,0.596143766494142,-0.8080660104751587,-0.56069016456604,0.180708035826683,-24.95378875732422,-39.8592529296875,19.4940185546875,2
1596229814.398135,65,0,102146.6000105,1.479743093399218,-1.78361005593144,0.5965209985392413,0.2145204991102219,0.5872650146484375,-0.06043145433068275,-0.1608901023864746,-0.03680163621902466,-0.08525872230529785,2,0.6377940647618883,-0.4249536567795754,0.2358109749156841,0.5975166849525249,-0.8086314797401428,-0.5617676973342896,0.1747337579727173,-24.99431610107422,-40.06982421875,19.5235595703125,2
1596229814.42671,66,0,102146.6301085,1.491732559153953,-1.758448443550918,0.5988927396381918,0.5052456259727478,1.536440491676331,-0.2974594235420227,-0.233188271522522,0.06628972291946411,-0.01376628875732422,2,0.6376161366886357,-0.4129022137602015,0.2466331377894827,0.6017719432120772,-0.8114604949951172,-0.5637282729148865,0.1540851444005966,-25.49755859375,-39.94675445556641,19.0394287109375,2
1596229814.4568,67,0,102146.6602065,1.520602326712816,-1.715646528386842,0.6088272986497623,0.87614506483078,2.326048612594604,-0.5681905746459961,-0.2167882323265076,0.1089544892311096,0.07716691493988037,2,0.6393770600261125,-0.3878158707001595,0.265740594125935,0.6084224415422836,-0.8117286562919617,-0.5719058513641357,0.1184083521366119,-26.03436279296875,-39.80379486083984,18.5360107421875,2
1596229814.487,68,0,102146.6903045,1.560664292080338,-1.659933521487509,0.6235515886279765,1.297841191291809,2.86343240737915,-0.6073248982429504,-0.02316397428512573,0.06554388999938965,0.2123188972473145,2,0.6412319508245238,-0.3534896125623661,0.2910481302170177,0.615757708243978,-0.8085866570472717,-0.5839220285415649,0.07226663827896118,-26.76500701904297,-39.72267913818359,17.7125244140625,2
1596229814.516934,69,0,102146.7204015,1.624074213343077,-1.607464883197731,0.6370439837031938,1.941316366195679,3.106781482696533,-0.4924742579460144,0.0481107234954834,0.1409052610397339,0.2171288728713989,2,0.6457182125886965,-0.3127024724157567,0.3231900024903541,0.6171008016108431,-0.8033172488212585,-0.5948218107223511,0.0294696930795908,-27.35244750976562,-39.39825439453125,17.63638305664062,2
1596229814.548736,70,0,102146.7504995,1.717780699701725,-1.559403051825219,0.6471767299098564,3.116805791854858,4.216084480285645,-0.2060176134109497,-0.05327707529067993,0.4038282036781311,0.1252367496490479,2,0.6523954584995368,-0.264264162883654,0.3644181063905735,0.6097082057400638,-0.7977374792098999,-0.6029364466667175,-0.00908923614770174,-28.65904235839844,-38.69853210449219,17.5067138671875,2
1596229814.577133,71,0,102146.7805975,1.854447089617288,-1.469963767499482,0.6624353029565972,4.251282691955566,7.584892272949219,-0.9102243185043335,-0.9666630029678345,0.6922768354415894,0.6227430105209351,2,0.65203348207895,-0.1875276007413751,0.4303342922340483,0.5953973518251741,-0.7844915986061096,-0.6150389313697815,-0.07937147468328476,-29.91880798339844,-37.76692199707031,17.58724975585938,2
1596229814.607498,72,0,102146.8106955,2.024380765437851,-1.314118436805381,0.7412943858222264,4.794421672821045,9.249373435974121,-2.369664669036865,-0.7327202558517456,0.3123680353164673,0.6967877149581909,2,0.6347816963550716,-0.05853254202383304,0.5085820326306578,0.578766221793559,-0.7134304642677307,-0.6752431988716125,-0.1872522830963135,-33.27378082275391,-36.36891174316406,14.45162963867188,2
1596229814.63735,73,0,102146.8407935,2.168123498513595,-1.161422589594465,0.8576889440769593,3.850368976593018,7.254034996032715,-2.564341306686401,0.5214239954948425,-0.02035987377166748,0.5455146431922913,2,0.6036085803506147,0.07390580887214382,0.5653541168841287,0.557287318502462,-0.600131630897522,-0.7563326954841614,-0.2603892385959625,-33.67165374755859,-36.76811218261719,12.23556518554688,2
1596229814.667459,74,0,102146.8708915,2.272139820613287,-1.082325352671714,0.9475999733210081,2.627736806869507,3.393592119216919,-0.5916767716407776,1.308279395103455,-0.5157956480979919,0.04524469375610352,2,0.5804554971913441,0.161643879297474,0.5927601542951574,0.534394979325683,-0.5153784155845642,-0.8120170831680298,-0.2738853394985199,-33.00473785400391,-37.99440002441406,9.34417724609375,2
1596229814.698369,75,0,102146.9009894167,2.372372685267778,-1.100011293593054,0.9821400572322297,1.877481460571289,1.482803583145142,-0.2389394193887711,0.1293094158172607,0.1588925123214722,-0.08116483688354492,2,0.5780901689571526,0.1997155935268667,0.6043758485939659,0.5105440266976489,-0.4948402643203735,-0.8316875100135803,-0.2518508732318878,-33.34199523925781,-37.87743377685547,9.34375,2
1596229814.727765,76,0,102146.9310874167,2.433742339791344,-1.105796952553031,1.028225165183033,1.361356139183044,1.857453942298889,-1.468788981437683,-0.5617332458496094,0.3920034170150757,0.2045097947120667,2,0.5739693117539089,0.2340730971006739,0.6055629325920208,0.4990614715991857,-0.461515337228775,-0.8563839197158813,-0.2315380275249481,-33.21170043945312,-37.47780609130859,10.02142333984375,2
1596229814.757807,77,0,102146.9611854167,2.452336137313269,-1.057715213138152,1.085903635629551,1.037197828292847,2.253171920776367,-1.437667727470398,-0.1311547160148621,0.3144306540489197,0.1880767345428467,2,0.557293658890692,0.2739063287620266,0.6076824663940363,0.4950969893888031,-0.4060947597026825,-0.8847249746322632,-0.2287981957197189,-32.65879058837891,-38.32817077636719,9.775421142578125,2
1596229814.787961,78,0,102146.9912834167,2.461015144155397,-1.007893077728541,1.132333200270198,0.7241182923316956,1.386067271232605,-1.128722906112671,0.289427638053894,0.0234520435333252,0.2067258358001709,2,0.5409411271427281,0.3067636536557266,0.6102164259020633,0.4908304640004705,-0.3590444326400757,-0.9054052233695984,-0.2265575081110001,-31.47898864746094,-39.54710388183594,8.72332763671875,2
1596229814.817922,79,0,102147.0213814167,2.448340927338118,-0.9716424213344153,1.166663818777239,0.2897339165210724,0.1553474515676498,-0.9453710913658142,0.390455037355423,-0.2619277834892273,0.1434633731842041,2,0.5320120437457475,0.3257081043336447,0.6067871741799371,0.4926325118919479,-0.3247273564338684,-0.9194438457489014,-0.2217548340559006,-30.06706237792969,-40.59284210205078,8.725006103515625,2
1596229814.848973,80,0,102147.0514794167,2.422428808117118,-0.9633370157697015,1.185775806375147,-0.02291982062160969,-0.8522784113883972,-0.4294641017913818,0.4738569259643555,-0.04432308673858643,0.1435056924819946,2,0.5338699065571839,0.3283233021149413,0.5968811298871515,0.5009186247514628,-0.3083872199058533,-0.926790714263916,-0.2143734693527222,-29.32675170898438,-40.87869262695312,8.926177978515625,2
1596229814.878097,81,0,102147.0815774167,2.406575795750006,-0.9741705168215203,1.195936687539843,0.1032205298542976,-0.7878843545913696,-0.5164445042610168,0.1493427157402039,-0.1860278248786926,0.1215974092483521,2,0.5397500502573858,0.3252854730767207,0.5869203645912069,0.5083146225374701,-0.3028858602046967,-0.9305590391159058,-0.2057184875011444,-28.27398681640625,-41.46974182128906,9.712554931640625,2
1596229814.908497,82,0,102147.1116754167,2.386299307344338,-0.9723585379588242,1.208748868936717,0.06289464980363846,-0.3308742046356201,-0.3669883906841278,0.02250179648399353,-0.2929392457008362,-0.0655173659324646,2,0.5426413895020136,0.3252285488625301,0.5783404260056784,0.5150620388289587,-0.2926371395587921,-0.9351735711097717,-0.1995334327220917,-27.92655181884766,-41.66344451904297,10.09542846679688,2
1596229814.938371,83,0,102147.1417724167,2.385290441340446,-0.9748286134369359,1.218359894550294,0.2208425253629684,-0.01739200949668884,-0.2102290242910385,-0.05153733491897583,-0.1123025417327881,-0.3624794483184814,2,0.5436139934139966,0.3280334294732428,0.5744770114356048,0.5165790033207086,-0.2856771349906921,-0.9385344982147217,-0.1937557905912399,-27.2958984375,-41.86072540283203,10.73379516601562,2
1596229814.968529,84,0,102147.1718704167,2.401361288185558,-0.9924297535753005,1.232191531248926,0.5972974896430969,0.06424542516469955,-0.3543794751167297,0.04918313026428223,-0.04117989540100098,-0.2831544876098633,2,0.5460663228287487,0.3331962529159428,0.5695915917236166,0.5160979891999037,-0.2781457304954529,-0.943219006061554,-0.1815836578607559,-27.18851470947266,-42.11069488525391,11.00485229492188,2
1596229814.998858,85,0,102147.2019684167,2.43036664787195,-1.015683720830376,1.246476817147594,0.4618960022926331,0.1662842631340027,-0.1120612770318985,0.06195542216300964,-0.1155093312263489,0.1364076137542725,2,0.5477269934480735,0.3406186955649211,0.5663027256889762,0.5131034336621807,-0.2708133459091187,-0.9478678107261658,-0.1679480969905853,-26.55804443359375,-41.92071533203125,11.86590576171875,2
1596229815.028585,86,0,102147.2320664167,2.460431246787536,-1.03512778890847,1.260133060674648,0.4859878122806549,0.3721783757209778,-0.4341358840465546,-0.1588920652866364,0.1987780332565308,0.0295109748840332,2,0.5478373932628189,0.3490840483634842,0.5644559335808801,0.5093170960894703,-0.2628711760044098,-0.9521310329437256,-0.1560290306806564,-26.66085815429688,-42.01921844482422,11.88516235351562,2
1596229815.058765,87,0,102147.2621644167,2.474181865156606,-1.039372843803767,1.278501205357234,0.3506655693054199,0.1919319629669189,-0.3157164752483368,-0.003501713275909424,-0.03629571199417114,0.1014793515205383,2,0.5461762678286453,0.3587195203208228,0.5611168974212357,0.5080941092758431,-0.2484109103679657,-0.9575850367546082,-0.1460235863924026,-26.20859527587891,-42.12099456787109,12.58294677734375,2
1596229815.088888,88,0,102147.2922624167,2.480473774566332,-1.040810994690968,1.288789823630275,0.1907043755054474,0.1171677485108376,-0.3526736497879028,-0.02770957350730896,0.03698521852493286,0.1003039479255676,2,0.5451615266912457,0.3639504504758436,0.5591280536953753,0.5076561298229215,-0.2401068508625031,-0.9604989886283875,-0.1406779587268829,-25.85449981689453,-42.1556396484375,12.55389404296875,2
1596229815.11892,89,0,102147.3223604167,2.47701852284872,-1.035513870134981,1.302622949072827,0.2002033442258835,0.0237254798412323,-0.3636094331741333,0.06840237975120544,-0.02298879623413086,0.06910479068756104,2,0.54391945747903,0.3695580524497842,0.5553746415193086,0.5090552989337582,-0.2279071807861328,-0.9642565250396729,-0.1351569443941116,-25.33100891113281,-42.59768676757812,12.93511962890625,2
1596229815.149411,90,0,102147.3524584167,2.481330407834431,-1.037211261076907,1.312731963550896,0.1965260356664658,0.08426831662654877,-0.2212884128093719,0.05856204032897949,-0.02212458848953247,-0.02871036529541016,2,0.5432815083667217,0.3740889171371872,0.5528393120734156,0.509186907964748,-0.2197323888540268,-0.9668858051300049,-0.1298053711652756,-24.94544982910156,-42.63314056396484,12.99295043945312,2
1596229815.179225,91,0,102147.3825564167,2.488236259048333,-1.047079514253609,1.322894377194753,0.1943179219961166,-0.2729255855083466,-0.2589940130710602,0.1110749840736389,0.02395570278167725,-0.0145534873008728,2,0.5443598676889869,0.3772496769250292,0.5487166695816271,0.5101615816493782,-0.2124820798635483,-0.9694293737411499,-0.1227100342512131,-24.54469299316406,-42.62487030029297,13.33718872070312,2
1596229815.211521,92,0,102147.4126544167,2.498824638931225,-1.063537547884861,1.328242281136254,0.2156749367713928,-0.05883792042732239,0.04248574748635292,0.2358623147010803,-0.06130689382553101,0.07283800840377808,2,0.5466564822440863,0.3779265460504602,0.5452451686173373,0.510926400356406,-0.2099383175373077,-0.9707276821136475,-0.1166764348745346,-24.42365264892578,-42.94245910644531,13.3597412109375,2
1596229815.239304,93,0,102147.4427524167,2.52497990141109,-1.090411474250679,1.329628955266824,0.2063228785991669,-0.1020268276333809,0.02316053584218025,0.01532551646232605,0.08450734615325928,-0.04076027870178223,2,0.5489643159625934,0.3787514616102194,0.5441179499755777,0.5090393599857368,-0.2118038684129715,-0.9710597991943359,-0.1103710234165192,-24.2833251953125,-42.4888916015625,13.91482543945312,2
1596229815.269514,94,0,102147.4728504167,2.552345242330785,-1.126260134849387,1.332532598028709,0.1689733266830444,-0.3481695055961609,0.0202925056219101,0.07316488027572632,-0.02584743499755859,0.02580738067626953,2,0.5533422208048322,0.3782386202520676,0.5402953906724199,0.508752124272676,-0.2130770981311798,-0.9717492461204529,-0.1014958620071411,-24.28814697265625,-42.49465179443359,14.5704345703125,2
1596229815.299637,95,0,102147.5029484167,2.583676174941633,-1.163824728259236,1.330077895521319,0.299097865819931,-0.2701051533222198,0.3225815296173096,0.1769036054611206,-0.006509304046630859,-0.04228532314300537,2,0.5577270033612671,0.3765070871173772,0.5385770190314626,0.5070678114334005,-0.218928650021553,-0.9711669683456421,-0.09436600655317307,-24.50806427001953,-42.42948913574219,14.82382202148438,2
1596229815.332607,96,0,102147.5330464167,2.628805009044115,-1.2182945710608,1.32389885527162,0.221681535243988,-0.3974166214466095,0.2814338803291321,0.01780566573143005,0.03026372194290161,-0.01801478862762451,2,0.5644074287702,0.3731698425415139,0.5365866725629718,0.5042451408814481,-0.2293688505887985,-0.9696753621101379,-0.08437704294919968,-24.55508422851562,-42.09059143066406,15.36541748046875,2
1596229815.359859,97,0,102147.5631444167,2.668548760591962,-1.26774911709857,1.318820280820662,0.2625879049301147,-0.3555116057395935,0.2550168037414551,0.04301825165748596,-0.01229709386825562,-0.0683891773223877,2,0.5707414124127669,0.3702057808380941,0.5340633374663863,0.5019742448667187,-0.2379565984010696,-0.9684216380119324,-0.07440383732318878,-24.77214050292969,-41.64141845703125,15.7972412109375,2
1596229815.392104,98,0,102147.5932424167,2.703285506855224,-1.311173249707917,1.311475520211074,0.1392531991004944,-0.4038115739822388,0.3789980411529541,-0.01895222067832947,0.03239065408706665,0.1033248901367188,2,0.5767097280696966,0.366731321687884,0.5324451137054157,0.4994156800656867,-0.2478298097848892,-0.9665643572807312,-0.06582805514335632,-24.94332122802734,-41.33912658691406,16.71847534179688,2
1596229815.419962,99,0,102147.6233404167,2.718541197721952,-1.337914230241903,1.304348098669685,-0.004422071389853954,-0.212670624256134,0.1431608945131302,-0.1559946238994598,-0.010334312915802,0.2057398557662964,2,0.5818625415645158,0.3620119861312996,0.5305494576572797,0.498899325255045,-0.2561986446380615,-0.9647122025489807,-0.06076660752296448,-24.96478271484375,-41.19557952880859,16.82940673828125,2
1596229815.451178,100,0,102147.6534374167,2.726565698575889,-1.347660067287837,1.29970874536507,0.08450152724981308,-0.02793478593230247,0.1694691181182861,-0.03436392545700073,0.03721463680267334,-0.01286154985427856,2,0.5835547776165284,0.3603269444908436,0.5310243252792952,0.4976357930710941,-0.2611404061317444,-0.9634802341461182,-0.05925662815570831,-25.30070495605469,-41.06125640869141,16.834716796875,2
1596229815.481734,101,0,102147.6835354167,2.74199293097209,-1.362401720281113,1.295126094826623,0.1162818968296051,0.03308925032615662,0.2195011526346207,0.0100519061088562,0.02415084838867188,-0.03920537233352661,2,0.5852573689969147,0.3596067528793072,0.5318341036135642,0.495286981938925,-0.2663025557994843,-0.9622429609298706,-0.05631358921527863,-25.25449371337891,-40.66147613525391,17.213623046875,2
1596229815.512364,102,0,102147.7136334167,2.757578093840942,-1.375679510075982,1.28927578416639,0.09142012894153595,0.102180540561676,0.2065579444169998,-0.03661629557609558,-0.06996285915374756,-0.05601668357849121,2,0.5867340218639181,0.3589032307821527,0.5334175311652376,0.4923385595632729,-0.2725446224212646,-0.9606341123580933,-0.05386331677436829,-25.74160766601562,-40.69210052490234,17.34426879882812,2
1596229815.54057,103,0,102147.7437314167,2.778680084114165,-1.387388085239558,1.282635815683371,0.2180151641368866,0.3957395553588867,0.3207873404026031,0.06338608264923096,0.07810944318771362,-0.009583592414855957,2,0.5869408409985543,0.3599792148781776,0.5369727337587707,0.4874172776515923,-0.2794222831726074,-0.9587682485580444,-0.05183082818984985,-25.95391082763672,-40.66667938232422,17.2144775390625,2
1596229815.57194,104,0,102147.7738294167,2.800543417896088,-1.396925020943105,1.275731699390186,0.0926971361041069,0.3464297652244568,0.1520014405250549,-0.03766506910324097,-0.001706540584564209,-0.05063223838806152,2,0.5864955935483749,0.3617583574218092,0.5413400166304014,0.4817724176716256,-0.2864166796207428,-0.9567833542823792,-0.05030762031674385,-26.76618957519531,-40.17672729492188,17.02334594726562,2
1596229815.600485,105,0,102147.8039274167,2.822541412914547,-1.417898487018683,1.272422191755774,0.2812928855419159,-0.2317238599061966,0.2883795499801636,0.3104739785194397,0.01885795593261719,-0.05427324771881104,2,0.5886534816617486,0.3620788836784038,0.5413433077102269,0.4788876296977152,-0.2905370593070984,-0.9558156728744507,-0.04477192088961601,-26.92359161376953,-40.07122802734375,17.05279541015625,2
1596229815.632458,106,0,102147.8340254167,2.846091516597663,-1.446408120615059,1.258454286240939,0.3277794122695923,0.06539937108755112,0.3704762160778046,0.02044722437858582,-0.0225679874420166,0.08234703540802002,2,0.5941680007568522,0.357634053566331,0.5421706445336342,0.4744610342675717,-0.3049140572547913,-0.9516165256500244,-0.03812454268336296,-27.39371490478516,-39.67002868652344,17.50985717773438,2
1596229815.660665,107,0,102147.8641234167,2.857424839172805,-1.465772805031466,1.251288923416085,-0.01369575969874859,-0.07781028747558594,0.2208898663520813,-0.2097156345844269,0.06411957740783691,0.1437457799911499,2,0.5984671742837524,0.3540811512336083,0.5409140742773091,0.4731548574364653,-0.3123682141304016,-0.9493902325630188,-0.03292715921998024,-27.49524688720703,-39.383544921875,17.90249633789062,2
1596229815.692002,108,0,102147.8942215,2.872967669366976,-1.475860190382176,1.240740721845214,0.09129339456558228,0.1176232770085335,0.451018750667572,0.06861814856529236,0.01587867736816406,0.01869285106658936,2,0.6000637790479321,0.3529339890487102,0.5442051481868369,0.4681896788873137,-0.3226355016231537,-0.9460242986679077,-0.0307221207767725,-27.71396636962891,-38.96538543701172,18.1383056640625,2
1596229815.720917,109,0,102147.9243195,2.874305628309628,-1.480499779130803,1.228551520390927,-0.06386668980121613,-0.2655668556690216,0.3013857305049896,-0.07999688386917114,-0.01090073585510254,0.05037742853164673,2,0.6029584496644244,0.348295588527708,0.5461537129638863,0.4656687532947036,-0.3342352509498596,-0.9420036673545837,-0.03026258200407028,-28.07170104980469,-38.60387420654297,18.12408447265625,2
1596229815.752325,110,0,102147.9544175,2.87202892962971,-1.484291451938271,1.221349533976228,-0.02625229768455029,-0.07067940384149551,0.2426287084817886,0.0003975629806518555,0.05030035972595215,0.05601823329925537,2,0.6054825458987046,0.3443845049395399,0.5462576540054558,0.4651801467711741,-0.3410972952842712,-0.9395622611045837,-0.02958039939403534,-28.41578674316406,-38.39302825927734,18.05715942382812,2
1596229815.782452,111,0,102147.9845155,2.876460719945472,-1.490558238404902,1.21745366971148,0.09909116476774216,-0.06835920363664627,-0.04638234525918961,-0.1892234086990356,0.04183059930801392,-0.05426484346389771,2,0.6070245311958131,0.3430065690488507,0.5463452573072201,0.4640844181936644,-0.3449219465255737,-0.938221275806427,-0.02773542515933514,-28.95652008056641,-38.84333038330078,18.18594360351562,2
1596229815.811788,112,0,102148.0146135,2.881427372865061,-1.49667496233652,1.221788323984866,-0.06150689721107483,-0.04172378033399582,-0.06088554859161377,-0.03267955780029297,0.01695907115936279,0.016396164894104,2,0.6071739125810047,0.3444967121231464,0.544580771418787,0.4648584384794575,-0.3410260677337646,-0.9397124052047729,-0.02532371133565903,-28.87862396240234,-38.67713928222656,18.46987915039062,2
1596229815.84121,113,0,102148.0447115,2.879071320390377,-1.494979355924736,1.222151084887288,-0.009247184731066227,-0.0001744860783219337,0.01832733862102032,0.07093638181686401,-0.006887137889862061,0.007266879081726074,2,0.6070620132421246,0.3442929574534704,0.5444591653304089,0.4652980003898594,-0.3406433165073395,-0.9398363828659058,-0.02587614394724369,-28.40341949462891,-38.55659484863281,18.56332397460938,2
1596229815.871897,114,0,102148.0748095,2.877868274139785,-1.493477154339609,1.218488089354851,0.073651023209095,0.03207961469888687,0.07271376997232437,0.04092520475387573,0.02260035276412964,-0.01585602760314941,2,0.6074219031119222,0.3430916091808354,0.5455326526418427,0.4644575436957588,-0.3440339863300323,-0.938578724861145,-0.02665355801582336,-28.42644500732422,-38.64482879638672,18.34991455078125,2
1596229815.901523,115,0,102148.1049075,2.887114640821504,-1.50176467540321,1.216623776144249,0.07809110730886459,-0.02415113523602486,0.05290233343839645,-0.02275353670120239,0.008915543556213379,-0.02666515111923218,2,0.6083832779746505,0.3433784054316599,0.545611536417561,0.4628918667623724,-0.3459877371788025,-0.9379338026046753,-0.02392211556434631,-28.80687713623047,-38.79098510742188,18.43881225585938,2
1596229815.932791,116,0,102148.1350055,2.892325460098617,-1.507160797418148,1.215204180952885,0.04708130657672882,0.01793339662253857,0.08228510618209839,0.04695606231689453,0.003395795822143555,0.06182968616485596,2,0.6091821601208268,0.3432599133590732,0.5455177917949545,0.4620389082379389,-0.3474405407905579,-0.9374405145645142,-0.02213945612311363,-28.74044036865234,-38.53353118896484,18.52096557617188,2
1596229815.961686,117,0,102148.1651025,2.894239948529123,-1.508196711462,1.212321107739915,-0.004830487072467804,-0.008759758435189724,0.08431374281644821,-0.02798670530319214,0.01389455795288086,-0.01293301582336426,2,0.6095880799249946,0.3426778574440872,0.5463391070787166,0.4609639408584499,-0.3501593470573425,-0.9364328980445862,-0.02194851823151112,-28.89810943603516,-38.11405181884766,18.8343505859375,2
1596229816.007825,118,0,102148.1952005,2.892496800288916,-1.50739123485508,1.210015744433163,-0.01813961938023567,-0.01123084034770727,0.09911102056503296,-0.01723122596740723,0.01316392421722412,0.02841544151306152,2,0.6100263196786151,0.3415907364428775,0.5467383093760834,0.4607178886488906,-0.3522955775260925,-0.9356215596199036,-0.0223673153668642,-28.75009155273438,-38.39537811279297,18.53329467773438,2
1596229816.021947,119,0,102148.2252985,2.893636019749337,-1.507066761268885,1.206202485297264,0.04203182458877563,0.09543056041002274,0.03976279497146606,-0.03610992431640625,0.006055474281311035,0.0006090998649597168,2,0.6103366428090465,0.3407856527447478,0.5480157098372445,0.4593832648974149,-0.3558456897735596,-0.9342686533927917,-0.02270864322781563,-29.0372314453125,-38.01124572753906,18.43145751953125,2
1596229816.065126,120,0,102148.2553965,2.898305216473954,-1.509780166063572,1.205912570455577,0.02753449976444244,0.08552362769842148,0.04646000266075134,0.01485386490821838,0.02581804990768433,0.01621782779693604,2,0.6103291292505596,0.3414946519690947,0.5483284975338105,0.4584925757788812,-0.3561761975288391,-0.9341652393341064,-0.0217595137655735,-29.31678771972656,-38.15009307861328,18.69143676757812,2
1596229816.082096,121,0,102148.2854945,2.900679284666053,-1.509281444052879,1.203572977064956,0.01432035118341446,0.03624774143099785,0.05519087985157967,0.003899276256561279,-0.01012605428695679,-0.01207602024078369,2,0.6101528150108991,0.3415813496747258,0.5495831832602786,0.457158506168118,-0.3583458065986633,-0.933327853679657,-0.02207144722342491,-29.23265838623047,-37.95716857910156,18.52383422851562,2
1596229816.128865,122,0,102148.3155925,2.901846097037784,-1.510455338988223,1.202913657862502,0.03882287070155144,0.0097011998295784,0.02184351719915867,0.002808243036270142,0.01053863763809204,0.004640161991119385,2,0.610379368457231,0.3414573016969686,0.5496488369301521,0.456869715879202,-0.3589856326580048,-0.9330909252166748,-0.02168787457048893,-29.24810791015625,-37.99126434326172,18.54067993164062,2
1596229816.142322,123,0,102148.3456905,2.907782266854288,-1.511551468495065,1.200696656967463,0.07400606572628021,0.2259012460708618,0.1253371685743332,0.02553859353065491,0.023262619972229,-0.004698038101196289,2,0.6100144078886046,0.342306902185965,0.5511946395620484,0.4548546989310103,-0.3610735237598419,-0.9322912693023682,-0.02141681313514709,-29.31182861328125,-37.80108642578125,18.54403686523438,2
1596229816.189588,124,0,102148.3757885,2.915015852745855,-1.512599576222977,1.197245668788882,0.1009123474359512,0.1188800036907196,0.06881634145975113,-0.03315192461013794,0.005558371543884277,0.02876895666122437,2,0.6096086663183388,0.3431684506770547,0.5533312830657034,0.4521472961198584,-0.364305704832077,-0.9310374855995178,-0.02122537605464458,-29.50956726074219,-37.89662933349609,18.50070190429688,2
1596229816.202725,125,0,102148.4058865,2.921900927144409,-1.516572547205594,1.195980636984141,0.0948326587677002,0.07896861433982849,0.0760008841753006,0.06127685308456421,0.003380417823791504,-0.02960914373397827,2,0.6097266755205905,0.343965918082138,0.553971334949355,0.4505958311263484,-0.3655629754066467,-0.9305751323699951,-0.01984165608882904,-29.70773315429688,-37.64713287353516,18.3690185546875,2
1596229816.249051,126,0,102148.4359845,2.930261543895402,-1.52366963106909,1.192365545548524,0.06218470260500908,-0.05607868358492851,0.1251822710037231,0.009820163249969482,0.002140045166015625,-0.03258204460144043,2,0.610835574430158,0.3437693304021807,0.5545279340627217,0.4485545514009527,-0.3690521717071533,-0.9292455315589905,-0.01740509644150734,-29.82685089111328,-37.34833526611328,18.50408935546875,2
1596229816.262717,127,0,102148.4660825,2.932989922013308,-1.527847715542757,1.190102994393347,0.000349811278283596,0.02339545637369156,0.05994047969579697,0.03037458658218384,-0.007529199123382568,0.01950514316558838,2,0.6118906654718769,0.3429477904799908,0.554386376096635,0.4479199525591311,-0.3712213933467865,-0.9284072518348694,-0.01595325395464897,-29.93215179443359,-37.15849304199219,18.76019287109375,2
1596229816.310173,128,0,102148.4961805,2.931265171980504,-1.522468382757018,1.186560058702192,0.05088311806321144,0.04100576788187027,0.1690943837165833,0.005120813846588135,0.04163718223571777,0.02835780382156372,2,0.6112626557447268,0.3424961375444749,0.5564647303058242,0.4465436765170943,-0.3744132518768311,-0.9270849823951721,-0.01810872368514538,-30.42916107177734,-38.04548645019531,18.5118408203125,2
