loggingTime,loggingSample,identifierForVendor,accelerometerTimestamp_sinceReboot,accelerometerAccelerationX,accelerometerAccelerationY,accelerometerAccelerationZ,gyroTimestamp_sinceReboot,gyroRotationX,gyroRotationY,gyroRotationZ
1595775496.324618,1,0,461159.6788084167,0.265350341796875,-0.9130401611328125,-0.2391357421875,461159.6512164167,-0.07175514847040176,0.1472605615854263,0.07724578678607941
1595775496.345914,2,0,461159.7089084167,0.4284515380859375,-0.877838134765625,-0.311798095703125,461159.6813174167,0.1691043376922607,0.03254116326570511,0.07147099077701569
1595775496.376038,3,0,461159.7390084167,0.285552978515625,-0.9775390625,-0.3065948486328125,461159.7114174167,-0.0306061115115881,0.002835733816027641,-0.0568731352686882
1595775496.406002,4,0,461159.7691094167,0.2286376953125,-0.857513427734375,-0.2337646484375,461159.7415174167,0.08839058130979538,-0.2316867560148239,0.06901395320892334
1595775496.436203,5,0,461159.7992094167,0.358367919921875,-0.9223785400390625,-0.2296295166015625,461159.7716174167,0.0401812419295311,0.05271700769662857,-0.1144349649548531
1595775496.466271,6,0,461159.8293094167,0.398529052734375,-0.888885498046875,-0.31536865234375,461159.8017174167,-0.02966255508363247,0.1322166323661804,-0.02850248105823994
1595775496.496437,7,0,461159.8594094167,0.3385162353515625,-0.8995819091796875,-0.242034912109375,461159.8318174167,0.09988106042146683,-0.2328628152608871,0.08531862497329712
1595775496.526462,8,0,461159.8895094167,0.417236328125,-0.9219818115234375,-0.2096405029296875,461159.8619174167,0.02858663722872734,-0.09151393920183182,0.1175956055521965
1595775496.556708,9,0,461159.9196094167,0.313629150390625,-0.9056854248046875,-0.3266754150390625,461159.8920174167,-0.03614122793078423,0.1556734889745712,0.1370002031326294
1595775496.586518,10,0,461159.9497094167,0.2122650146484375,-0.92425537109375,-0.260040283203125,461159.9221174167,0.03249136358499527,-0.2701758146286011,0.07632779330015182
1595775496.617176,11,0,461159.9798094167,0.257720947265625,-0.8969879150390625,-0.2427978515625,461159.9522184167,0.0335017666220665,-0.1130887344479561,-0.08259181678295135
1595775496.646871,12,0,461160.0099094167,0.4605712890625,-0.8747711181640625,-0.334991455078125,461159.9823184167,0.1140400171279907,0.1453694403171539,-0.04627189040184021
1595775496.677063,13,0,461160.0400104167,0.3867034912109375,-0.8600616455078125,-0.2685089111328125,461160.0124184167,0.3461307883262634,-0.2184686958789825,-0.01385429687798023
1595775496.706938,14,0,461160.0701104167,0.2293243408203125,-0.9689788818359375,-0.252349853515625,461160.0425184167,-0.3027598559856415,-0.5273777842521667,-0.5629664063453674
1595775496.737205,15,0,461160.1002104167,0.353546142578125,-0.942718505859375,-0.2920684814453125,461160.0726184167,0.3511324524879456,-0.2644290030002594,-0.09803921729326248
1595775496.767325,16,0,461160.1303104167,0.279388427734375,-0.8582916259765625,-0.3204193115234375,461160.1027184167,0.04050428420305252,0.3194360435009003,0.5804921388626099
1595775496.797473,17,0,461160.1604104167,0.28961181640625,-0.8913421630859375,-0.2227630615234375,461160.1328184167,0.09799580276012421,-0.1882913410663605,-0.1313218027353287
1595775496.827358,18,0,461160.1905104167,0.142913818359375,-0.9979705810546875,-0.1819915771484375,461160.1629184167,0.1672350615262985,-0.2088272422552109,-0.2098669409751892
1595775496.857618,19,0,461160.2206104167,0.22198486328125,-0.9069671630859375,-0.1799468994140625,461160.1930184167,0.06878519058227539,0.0357193797826767,-0.02997654117643833
1595775496.887563,20,0,461160.2507104167,0.448089599609375,-0.8781585693359375,-0.234405517578125,461160.2231194167,0.08928274363279343,0.1998372077941895,0.009760218672454357
1595775496.917918,21,0,461160.2808104167,0.295318603515625,-0.944580078125,-0.2820281982421875,461160.2532194167,0.0298250075429678,0.2206878960132599,-0.01721946708858013
1595775496.947777,22,0,461160.3109114167,0.37139892578125,-0.927215576171875,-0.2171173095703125,461160.2833194167,-0.03883394971489906,-0.1632160842418671,-0.2910925447940826
1595775496.978007,23,0,461160.3410114167,0.2962799072265625,-0.9125518798828125,-0.2631683349609375,461160.3134194167,-0.01339996140450239,-0.02532639540731907,-0.2084576040506363
1595775497.00796,24,0,461160.3711114167,0.3025054931640625,-0.8451080322265625,-0.151458740234375,461160.3435194167,-0.1367493271827698,-0.3784855306148529,-0.4593449532985687
1595775497.038208,25,0,461160.4012114167,0.2939605712890625,-0.908203125,-0.1560211181640625,461160.3736194167,0.01342073362320662,-0.6635231375694275,-0.5863441824913025
1595775497.06857,26,0,461160.4313117917,0.1420135498046875,-0.9784393310546875,-0.0772552490234375,461160.4037194167,-0.1230955645442009,-0.365742564201355,-0.5295794606208801
1595775497.098907,27,0,461160.4614117917,0.209625244140625,-0.921173095703125,-0.1400299072265625,461160.4338197917,-0.1683583855628967,0.3754822611808777,-0.5055774450302124
1595775497.128339,28,0,461160.4915117917,0.410980224609375,-0.9970550537109375,-0.26251220703125,461160.4639197917,-0.1290535926818848,1.016963481903076,-0.3482863306999207
1595775497.158629,29,0,461160.5216117917,0.454315185546875,-0.8193817138671875,-0.237701416015625,461160.4940207917,-0.5567367672920227,1.154412984848022,-0.2786694467067719
1595775497.188671,30,0,461160.5517117917,0.5738372802734375,-0.6744384765625,-0.3312530517578125,461160.5241207917,-0.2840895056724548,0.9124104380607605,-0.5704906582832336
1595775497.218773,31,0,461160.5818127917,0.28875732421875,-0.773162841796875,-0.3150177001953125,461160.5542207917,-0.6573027968406677,1.360992789268494,-0.4182281494140625
1595775497.248692,32,0,461160.6119127917,0.22235107421875,-0.72320556640625,-0.2962188720703125,461160.5843207917,-1.390471577644348,2.261246204376221,-0.7450664639472961
1595775497.279283,33,0,461160.6420127917,0.634246826171875,-0.603729248046875,-0.215240478515625,461160.6144207917,-1.182069301605225,2.731668472290039,-0.7139641642570496
1595775497.309054,34,0,461160.6721127917,1.053115844726562,-0.6164703369140625,-0.1989898681640625,461160.6445207917,0.06000874191522598,1.402940988540649,-0.01239168830215931
1595775497.339268,35,0,461160.7022127917,0.7777099609375,-1.211502075195312,-0.3633575439453125,461160.6746207917,1.613808751106262,0.1121358573436737,0.4322915077209473
1595775497.369438,36,0,461160.7323127917,0.48968505859375,-0.82623291015625,-0.1739044189453125,461160.7047207917,0.05831364169716835,0.2861228287220001,-0.05063628032803535
1595775497.39944,37,0,461160.7624127917,0.378692626953125,-0.8896331787109375,-0.07891845703125,461160.7348207917,0.08563926815986633,1.739444136619568,0.2328702658414841
1595775497.429424,38,0,461160.7925127917,0.795654296875,-0.981689453125,0.109527587890625,461160.7649217917,0.905713677406311,1.57885205745697,0.6521404981613159
1595775497.459659,39,0,461160.8226127917,0.33843994140625,-0.7766571044921875,-0.0680084228515625,461160.7950217917,0.5355380177497864,1.572529554367065,0.7316036224365234
1595775497.490031,40,0,461160.8527137917,0.571136474609375,-0.9337158203125,-0.17706298828125,461160.8251217917,0.531996488571167,0.7028553485870361,-0.06035548448562622
1595775497.521664,41,0,461160.8828137917,0.462982177734375,-0.8951873779296875,-0.0376739501953125,461160.8552217917,0.3684520721435547,0.8827260136604309,0.1121246740221977
1595775497.549854,42,0,461160.9129137917,0.8820648193359375,-0.7026214599609375,-0.1104888916015625,461160.8853217917,0.4344856739044189,0.6770548820495605,0.08643689006567001
1595775497.582101,43,0,461160.9430137917,0.61126708984375,-0.9723663330078125,-0.3089752197265625,461160.9154217917,0.2587956190109253,0.5606508255004883,0.4721619486808777
1595775497.609971,44,0,461160.9731137917,0.4867706298828125,-0.826995849609375,0.0139617919921875,461160.9455217917,0.4544580578804016,-0.5946753621101379,0.3396241366863251
1595775497.642116,45,0,461161.0032137917,0.371368408203125,-0.6344451904296875,0.380218505859375,461160.9756217917,0.4767175614833832,-0.7611585855484009,-0.04434509575366974
1595775497.670396,46,0,461161.0333137917,0.3253631591796875,-1.153106689453125,0.2808685302734375,461161.0057217917,0.5865098237991333,0.1056989952921867,0.07795125991106033
1595775497.702508,47,0,461161.0634137917,0.2696685791015625,-0.886474609375,0.345703125,461161.0358217917,0.3067429065704346,0.03820730745792389,0.5407404899597168
1595775497.730413,48,0,461161.0935137917,0.5222320556640625,-0.6986083984375,0.3344268798828125,461161.0659227917,-0.3363577723503113,0.2780878245830536,0.144575297832489
1595775497.762608,49,0,461161.1236137917,0.542633056640625,-1.024444580078125,0.1302490234375,461161.0960227917,0.2258847951889038,0.9525900483131409,-0.04374641552567482
1595775497.790628,50,0,461161.1537147917,0.551361083984375,-0.989898681640625,0.213836669921875,461161.1261227917,-0.1569145172834396,0.4119398891925812,0.2100104838609695
1595775497.82246,51,0,461161.1838147917,0.50103759765625,-0.747955322265625,0.2331085205078125,461161.1562227917,-0.7975906133651733,0.07723220437765121,0.2277103960514069
1595775497.850793,52,0,461161.2139147917,0.49102783203125,-1.029022216796875,0.041534423828125,461161.1863227917,-0.4804840683937073,0.5952660441398621,0.05479959771037102
1595775497.881994,53,0,461161.2440147917,0.521881103515625,-0.9565887451171875,0.044677734375,461161.2164227917,-0.9175777435302734,0.3508253991603851,0.2724520266056061
1595775497.911027,54,0,461161.2741147917,0.496917724609375,-0.8029327392578125,0.14178466796875,461161.2465227917,-1.286435484886169,-0.01037807203829288,0.3903400599956512
1595775497.942076,55,0,461161.3042147917,0.552581787109375,-1.19720458984375,0.5013885498046875,461161.2766227917,-0.7236407995223999,0.4898535907268524,0.3432825207710266
1595775497.971365,56,0,461161.3343147917,0.4767303466796875,-0.9987030029296875,0.266387939453125,461161.3067227917,-1.758154511451721,1.423522233963013,0.5997417569160461
1595775498.002393,57,0,461161.3644147917,0.3184814453125,-0.9576263427734375,0.0131378173828125,461161.3368227917,-2.228198051452637,1.813773274421692,0.4456003904342651
1595775498.031294,58,0,461161.3945147917,0.6603546142578125,-0.4915313720703125,0.104888916015625,461161.3669237917,-2.457172393798828,2.128002166748047,-0.00800226628780365
1595775498.061981,59,0,461161.42461475,-0.1879425048828125,-0.8534698486328125,0.0519256591796875,461161.3970237917,-6.345928192138672,5.946940898895264,-0.7650955319404602
1595775498.091569,60,0,461161.4547147501,0.415130615234375,-0.1537017822265625,0.5961761474609375,461161.42712375,-5.417903900146484,4.936215877532959,-2.988179445266724
1595775498.122218,61,0,461161.48481575,0.767181396484375,0.348419189453125,0.0854644775390625,461161.45722375,-7.475859642028809,6.465910911560059,-1.118205428123474
1595775498.152038,62,0,461161.51491575,1.122421264648438,-0.5407562255859375,-0.0202789306640625,461161.48732375,-5.641948223114014,7.261519908905029,0.2149381339550018
1595775498.182203,63,0,461161.54501575,1.715530395507812,-0.4915313720703125,0.1442108154296875,461161.51742375,-5.620694637298584,7.53582763671875,-1.019006371498108
1595775498.212034,64,0,461161.57511575,1.73602294921875,-0.1340179443359375,-0.08392333984375,461161.5475237501,-6.498549938201904,6.527395725250244,-1.584658622741699
1595775498.260381,65,0,461161.6052157501,1.131851196289062,-0.5217742919921875,-0.2012786865234375,461161.57762375,-5.399324893951416,5.731757640838623,0.02985643222928047
1595775498.272643,66,0,461161.63531575,0.8791961669921875,-0.5377197265625,-0.7901611328125,461161.60772375,-4.32357120513916,5.761762142181396,0.05774478986859322
1595775498.321178,67,0,461161.66541575,1.576522827148438,0.7887725830078125,-0.4346466064453125,461161.63782375,-3.846625328063965,4.974589824676514,-0.05109327659010887
1595775498.332391,68,0,461161.69551575,3.013717651367188,1.4315185546875,0.176116943359375,461161.66792375,-0.8121954202651978,2.196190357208252,1.76980185508728
1595775498.378432,69,0,461161.72561575,1.213104248046875,-0.538543701171875,0.7678070068359375,461161.69802475,2.768682956695557,-3.122740268707275,2.993588209152222
1595775498.39266,70,0,461161.75571575,-0.057098388671875,-2.452499389648438,0.447296142578125,461161.72812475,1.051234602928162,-6.191684246063232,-1.511007308959961
1595775498.441436,71,0,461161.78581575,-0.49951171875,-0.9717254638671875,0.494659423828125,461161.7582247501,-0.4843941032886505,-4.487109184265137,-2.264194488525391
1595775498.452868,72,0,461161.8159167501,0.1713714599609375,0.18646240234375,0.28717041015625,461161.78832475,-1.932896733283997,2.865593910217285,1.626951217651367
1595775498.500954,73,0,461161.84601675,1.525711059570312,-0.1301727294921875,-0.1021728515625,461161.81842475,-0.6640653610229492,5.288116931915283,2.369797706604004
1595775498.513039,74,0,461161.87611675,1.847198486328125,-0.805694580078125,-0.62335205078125,461161.84852475,0.7995589971542358,3.439108848571777,1.413603544235229
1595775498.562604,75,0,461161.90621675,0.9322662353515625,-0.903656005859375,-0.2462921142578125,461161.87862475,-0.4417952597141266,-1.366292715072632,-0.7905915975570679
1595775498.573368,76,0,461161.93631675,0.3448333740234375,-0.5574188232421875,0.2073822021484375,461161.90872475,-0.2251015603542328,-2.056086778640747,-0.9846041798591614
1595775498.619863,77,0,461161.96641675,0.1852874755859375,-0.5328826904296875,0.1666717529296875,461161.93882475,-0.8152157068252563,0.01683943346142769,0.1721477955579758
1595775498.633398,78,0,461161.99651675,0.542449951171875,-0.57647705078125,0.05950927734375,461161.9689247501,-0.5174170136451721,1.409572005271912,0.8304226398468018
1595775498.682215,79,0,461162.0266167501,0.9569244384765625,-0.566558837890625,0.124542236328125,461161.99902475,-0.5733724236488342,1.312123537063599,0.2241470813751221
1595775498.69356,80,0,461162.05671675,1.021209716796875,-0.4832916259765625,0.030426025390625,461162.02912575,-0.0752825066447258,0.6040648221969604,-0.4570684731006622
1595775498.74061,81,0,461162.08681675,0.9027099609375,-0.720245361328125,0.1266021728515625,461162.05922575,-0.01392433792352676,-0.7818124890327454,-0.3476996421813965
1595775498.75386,82,0,461162.11691675,0.9821929931640625,-0.767852783203125,-0.171295166015625,461162.08932575,0.3761802911758423,-0.5522583723068237,-0.02025600336492062
1595775498.798683,83,0,461162.14701775,0.745941162109375,-0.567657470703125,-0.1828155517578125,461162.11942575,-0.05625714734196663,-0.5216735601425171,0.264389842748642
1595775498.813987,84,0,461162.17711775,0.715850830078125,-0.6051788330078125,-0.1464080810546875,461162.14952575,0.01009338069707155,-0.2611413300037384,0.1050348058342934
1595775498.862519,85,0,461162.20721775,1.174270629882812,-0.5876007080078125,0.0022735595703125,461162.1796257501,0.07206699997186661,0.1944443136453629,0.1044209450483322
1595775498.874369,86,0,461162.2373177501,1.009368896484375,-0.40185546875,-0.105224609375,461162.20972575,0.1380055397748947,0.1490781605243683,0.6387999057769775
1595775498.921581,87,0,461162.26741775,0.7003021240234375,-0.45477294921875,0.0200042724609375,461162.23982575,0.3669985234737396,-1.470519781112671,0.3716758191585541
1595775498.934708,88,0,461162.29751775,0.60516357421875,-0.5955352783203125,0.1459808349609375,461162.26992575,0.4573321342468262,-1.661668419837952,-0.1697256565093994
1595775498.981166,89,0,461162.32761775,0.5122528076171875,-0.62835693359375,-0.125885009765625,461162.30002575,0.4369192719459534,-0.782593309879303,-0.001961151836439967
1595775498.994586,90,0,461162.35771775,0.7045440673828125,-0.6292266845703125,-0.07568359375,461162.33012575,1.064390897750854,-1.698327422142029,0.2044737786054611
1595775499.043227,91,0,461162.38781775,0.994903564453125,-0.6657867431640625,-0.134857177734375,461162.36022575,0.8243719339370728,-1.87352180480957,-0.2040982693433762
1595775499.05496,92,0,461162.41791775,0.6151580810546875,-0.6876068115234375,-0.0678863525390625,461162.39032675,-0.05455059185624123,-1.080516934394836,-0.4621119797229767
1595775499.105294,93,0,461162.448017,0.6328582763671875,-0.757415771484375,0.0733184814453125,461162.42042675,-0.3865327835083008,-0.5513651371002197,-0.1496155858039856
1595775499.114985,94,0,461162.478117,0.9312591552734375,-0.5708160400390625,-0.0150909423828125,461162.450526,-0.3067213296890259,0.4675227105617523,0.2615626454353333
1595775499.155718,95,0,461162.5082170001,1.0787353515625,-0.5319061279296875,0.078033447265625,461162.480626,-0.2845297455787659,0.1924802362918854,0.1877842843532562
1595775499.175264,96,0,461162.538318,0.949981689453125,-0.7060546875,-0.243896484375,461162.510726,-0.07553283870220184,-0.2438464909791946,0.008366852998733521
1595775499.21962,97,0,461162.568418,0.57659912109375,-0.7188873291015625,-0.28924560546875,461162.540826,-0.2189427316188812,-0.8239349126815796,0.187913715839386
1595775499.235437,98,0,461162.598518,0.5181427001953125,-0.7034454345703125,-0.1372528076171875,461162.570926,-0.5167731046676636,-0.6388925909996033,0.2174385786056519
1595775499.278194,99,0,461162.628618,0.6818389892578125,-0.8029022216796875,-0.2671966552734375,461162.601026,-0.2964170277118683,0.3129123747348785,0.1244212836027145
1595775499.295549,100,0,461162.658718,0.978271484375,-0.3917083740234375,-0.1960601806640625,461162.631126,-0.2934255003929138,-0.1819556802511215,0.2996306419372559
1595775499.335278,101,0,461162.688818,0.8080291748046875,-0.380889892578125,-0.2185516357421875,461162.6612260001,-0.4242114722728729,-0.2165943533182144,0.1897683292627335
1595775499.355984,102,0,461162.7189180001,0.57171630859375,-0.84320068359375,-0.371551513671875,461162.691326,-0.1771420240402222,-0.2908912301063538,-0.03444292768836021
1595775499.398092,103,0,461162.749018,0.6654815673828125,-0.6378936767578125,-0.238189697265625,461162.721426,0.01543248537927866,-0.638160765171051,0.1309899687767029
1595775499.417527,104,0,461162.779118,0.8865966796875,-0.4141387939453125,-0.363311767578125,461162.751526,-0.09419840574264526,-0.4550362229347229,0.1419542133808136
1595775499.458254,105,0,461162.809218,0.8484649658203125,-0.564056396484375,-0.4718475341796875,461162.781626,0.119181253015995,-0.5148361921310425,0.002075401367619634
1595775499.476504,106,0,461162.839318,0.7149200439453125,-0.486175537109375,-0.2762298583984375,461162.8117270001,0.2764041721820831,-1.297483563423157,-0.03158695623278618
1595775499.515787,107,0,461162.869418,0.6389923095703125,-0.545867919921875,-0.254669189453125,461162.841827,0.2498540431261063,-1.466546297073364,-0.20862777531147
1595775499.536411,108,0,461162.899518,0.5238037109375,-0.7835235595703125,-0.246856689453125,461162.871927,0.3120670914649963,-1.164027810096741,-0.0751727819442749
1595775499.57818,109,0,461162.929619,0.4272613525390625,-0.8639678955078125,-0.275421142578125,461162.902027,0.002655970631167293,-0.4734589159488678,-0.07610781490802765
1595775499.596719,110,0,461162.959719,0.5238037109375,-0.833648681640625,-0.30877685546875,461162.932127,-0.2828692495822906,0.04561169445514679,-0.02668354287743568
1595775499.637196,111,0,461162.989819,0.72027587890625,-0.5867462158203125,-0.128936767578125,461162.962227,-0.307427853345871,0.3286274075508118,-0.03973037004470825
1595775499.656865,112,0,461163.019919,0.8072662353515625,-0.466339111328125,-0.3299102783203125,461162.992327,-0.4626592695713043,0.6694691777229309,-0.05632638931274414
1595775499.700079,113,0,461163.050019,0.966094970703125,-0.68145751953125,-0.5504913330078125,461163.022427,-0.2936145663261414,0.5678005814552307,-0.02177746780216694
1595775499.719274,114,0,461163.080119,0.7420501708984375,-0.5939483642578125,-0.4970550537109375,461163.052527,-0.1575515419244766,-0.0634857639670372,0.03671007603406906
1595775499.758527,115,0,461163.110219,0.53326416015625,-0.4504852294921875,-0.2801055908203125,461163.0826270001,-0.2872738540172577,-0.314149409532547,-0.09478456526994705
1595775499.777601,116,0,461163.1403190001,0.7466278076171875,-0.5892181396484375,-0.361663818359375,461163.112727,-0.1621833145618439,0.163703441619873,0.01454831659793854
1595775499.815523,117,0,461163.170419,0.8949127197265625,-0.837005615234375,-0.56585693359375,461163.142827,0.1409557908773422,0.3012064397335052,0.1333806961774826
1595775499.837867,118,0,461163.200519,0.7300872802734375,-0.6141204833984375,-0.4541015625,461163.172927,0.07312986999750137,-0.3821814656257629,0.06741872429847717
1595775499.877923,119,0,461163.230619,0.4539642333984375,-0.4048919677734375,-0.256439208984375,461163.203027,-0.2425508499145508,-0.4446919858455658,0.1202116310596466
1595775499.897817,120,0,461163.260719,0.6251220703125,-0.6480560302734375,-0.210693359375,461163.2331280001,0.146613135933876,-0.2958670854568481,0.3412476181983948
1595775499.940128,121,0,461163.290819,0.5723114013671875,-0.8967742919921875,-0.349212646484375,461163.263228,-0.01232670713216066,0.6573424339294434,0.04525483027100563
1595775499.957796,122,0,461163.320919,0.7472381591796875,-0.6394195556640625,-0.3810272216796875,461163.293328,-0.524291455745697,0.6650581359863281,0.4081608653068542
1595775500.000499,123,0,461163.3510190001,0.7353668212890625,-0.5350189208984375,-0.40325927734375,461163.323428,-0.08524832129478455,0.5453605055809021,0.4107393324375153
1595775500.017991,124,0,461163.381119,0.8831939697265625,-0.4932403564453125,-0.3639984130859375,461163.353528,0.04146328568458557,-0.1091390028595924,-0.03125645592808723
1595775500.057631,125,0,461163.41122,0.6694183349609375,-0.706451416015625,-0.2914581298828125,461163.383628,-0.01302205864340067,-0.2559662759304047,-0.06031607091426849
1595775500.078395,126,0,461163.44132025,0.5789337158203125,-0.778411865234375,-0.33380126953125,461163.413728,-0.05679856613278389,-0.1253821551799774,-0.03101570717990398
1595775500.118823,127,0,461163.47142025,0.7155303955078125,-0.5645599365234375,-0.3758544921875,461163.44382825,-0.08483473211526871,0.03635241463780403,0.1473556309938431
1595775500.138594,128,0,461163.5015202501,0.7210845947265625,-0.61492919921875,-0.35162353515625,461163.47392825,-0.08916422724723816,0.08813279122114182,0.08728164434432983
1595775500.177554,129,0,461163.53162025,0.6269683837890625,-0.6891326904296875,-0.3626861572265625,461163.5040282501,0.0416124239563942,-0.1325884014368057,0.03183383122086525
1595775500.200349,130,0,461163.56172025,0.6842803955078125,-0.6312103271484375,-0.327392578125,461163.53412825,0.1645793616771698,-0.3314213454723358,-0.06803497672080994
1595775500.237989,131,0,461163.59182025,0.6785430908203125,-0.6689605712890625,-0.3155975341796875,461163.56422825,0.02844149433076382,-0.1266380995512009,0.06857852637767792
1595775500.258815,132,0,461163.62192025,0.6503448486328125,-0.55804443359375,-0.400543212890625,461163.59432825,-0.04365453496575356,0.1097003966569901,-0.1227352395653725
1595775500.29818,133,0,461163.65202025,0.7117156982421875,-0.6630859375,-0.41815185546875,461163.62442825,-0.1024262383580208,0.00708640506491065,-0.3688057363033295
