loggingTime,loggingSample,identifierForVendor,accelerometerTimestamp_sinceReboot,accelerometerAccelerationX,accelerometerAccelerationY,accelerometerAccelerationZ,gyroTimestamp_sinceReboot,gyroRotationX,gyroRotationY,gyroRotationZ
1595773540.292434,1,0,459203.6405249167,0.0673828125,-0.9445343017578125,-0.3797607421875,459203.6367659167,-0.01791881211102009,0.0517345666885376,0.1481963843107224
1595773540.323288,2,0,459203.6743899167,0.0895233154296875,-0.891876220703125,-0.3722381591796875,459203.6706229167,0.03173795714974403,-0.1233317852020264,-0.03311773762106895
1595773540.366814,3,0,459203.7082469167,0.093994140625,-0.978729248046875,-0.37255859375,459203.7044889167,0.03914500400424004,0.0669018030166626,0.09521865844726562
1595773540.391002,4,0,459203.7421119167,0.0558013916015625,-0.8937225341796875,-0.398162841796875,459203.7383459167,0.04699147865176201,-0.1283358633518219,0.02460201643407345
1595773540.429554,5,0,459203.7759689167,0.0534515380859375,-0.943450927734375,-0.3353424072265625,459203.7722109167,0.00941853504627943,0.01820510253310204,0.005067729391157627
1595773540.458763,6,0,459203.8098349167,0.0862579345703125,-0.9368438720703125,-0.371002197265625,459203.8060679167,0.03766988217830658,0.1480760127305984,0.04260258749127388
1595773540.49128,7,0,459203.8436919167,0.06427001953125,-0.8941497802734375,-0.3670654296875,459203.8399329167,0.01748311892151833,-0.1798011958599091,-0.08774156868457794
1595773540.526443,8,0,459203.8775569167,0.060760498046875,-0.95623779296875,-0.335479736328125,459203.8737899167,0.1139886230230331,0.08349648863077164,-0.01930099353194237
1595773540.559059,9,0,459203.9114139167,0.120452880859375,-0.8580169677734375,-0.4828338623046875,459203.9076559167,0.1209147050976753,-0.04879576712846756,-0.1483207643032074
1595773540.610545,10,0,459203.9452789167,0.0650177001953125,-0.9495391845703125,-0.394989013671875,459203.9415129167,0.3665604293346405,0.04170829802751541,0.1103691160678864
1595773540.626724,11,0,459203.9791359167,0.10430908203125,-0.9240570068359375,-0.5140380859375,459203.9753779167,0.3163853883743286,-0.1618544161319733,0.1135531961917877
1595773540.669913,12,0,459204.0130019167,0.074005126953125,-0.87255859375,-0.422332763671875,459204.0092349167,0.3966687917709351,-0.379338800907135,-0.1382875740528107
1595773540.694533,13,0,459204.0468589167,0.0418853759765625,-0.949310302734375,-0.3481903076171875,459204.0430999167,0.4239283800125122,-0.5183662176132202,-0.02658979967236519
1595773540.731248,14,0,459204.0807239167,-0.0612335205078125,-0.9284515380859375,-0.14581298828125,459204.0769569167,0.4209637343883514,-0.2027637660503387,-0.1639306098222733
1595773540.762169,15,0,459204.1145809167,-7.62939453125e-05,-0.9544219970703125,-0.226715087890625,459204.1108229167,0.3109994232654572,-0.1990435868501663,-0.1424807161092758
1595773540.797295,16,0,459204.1484459167,-0.000152587890625,-0.942718505859375,-0.1685943603515625,459204.1446799167,0.213220402598381,-0.07909801602363586,-0.3177614510059357
1595773540.831569,17,0,459204.1823029167,0.1178741455078125,-0.984130859375,-0.2309417724609375,459204.1785449167,0.1179306283593178,-0.1077459007501602,-0.3335313498973846
1595773540.864863,18,0,459204.2161679167,0.07366943359375,-0.9925537109375,-0.235137939453125,459204.2124019167,0.07621034979820251,-0.1564708352088928,-0.3662584125995636
1595773540.910701,19,0,459204.2500249167,0.0023193359375,-0.9508819580078125,-0.176788330078125,459204.2462669167,-0.04253813996911049,0.02857518568634987,-0.4898229539394379
1595773540.932622,20,0,459204.2838909167,0.0866851806640625,-0.933685302734375,-0.11700439453125,459204.2801239167,0.03272439166903496,0.4425904750823975,-0.4032036364078522
1595773540.972638,21,0,459204.3177479167,0.1248626708984375,-0.970245361328125,-0.2306671142578125,459204.3139899167,-0.04739228263497353,0.538335382938385,-0.4131321907043457
1595773541.000848,22,0,459204.3516129167,0.1298370361328125,-0.9912109375,-0.195404052734375,459204.3478469167,-0.1642576456069946,0.3210470080375671,-0.472695916891098
1595773541.033045,23,0,459204.3854699167,0.056182861328125,-0.95782470703125,-0.2440338134765625,459204.3817119167,-0.1355415880680084,0.4452656209468842,-0.4862082600593567
1595773541.07091,24,0,459204.4193349167,-0.015625,-0.9528656005859375,-0.176849365234375,459204.4155689167,0.06114884093403816,0.8349180221557617,-0.6043857336044312
1595773541.100914,25,0,459204.4531919167,0.259521484375,-0.9524993896484375,-0.248260498046875,459204.4494339167,0.06019249930977821,1.470267057418823,-0.4716359674930573
1595773541.148736,26,0,459204.4870579167,0.147064208984375,-0.909393310546875,-0.4073333740234375,459204.4832909167,0.3274969160556793,1.263224959373474,-0.543639063835144
1595773541.168505,27,0,459204.5209149167,0.400421142578125,-0.8763427734375,-0.299346923828125,459204.5171559167,0.3044658899307251,1.296764492988586,-0.4660172462463379
1595773541.20952,28,0,459204.5547799167,0.664642333984375,-0.61102294921875,-0.4822540283203125,459204.5510129167,0.8806445002555847,1.341472864151001,-0.1366614401340485
1595773541.23624,29,0,459204.5886369167,0.5933074951171875,-0.99407958984375,-0.2123870849609375,459204.5848789167,0.6982927918434143,0.861198902130127,0.2738632261753082
1595773541.273141,30,0,459204.6225011667,0.317535400390625,-0.9540557861328125,-0.08660888671875,459204.6187351667,0.4815245568752289,0.3630804717540741,-0.04008297249674797
1595773541.304011,31,0,459204.6563581667,0.225860595703125,-1.28729248046875,-0.0921173095703125,459204.6526001667,0.2372125536203384,0.1293745040893555,0.03794578462839127
1595773541.339048,32,0,459204.6902241667,0.3826904296875,-0.8066253662109375,-0.04364013671875,459204.6864571667,0.2148521244525909,0.5354354381561279,-0.2720730602741241
1595773541.389728,33,0,459204.7240811667,0.465911865234375,-0.99932861328125,-0.196197509765625,459204.7203221667,0.1944299340248108,0.1896626055240631,0.3111211359500885
1595773541.406751,34,0,459204.7579461667,0.1964263916015625,-0.964813232421875,-0.08990478515625,459204.7541791667,-0.02463876642286777,-0.601249635219574,-0.06369295716285706
1595773541.45019,35,0,459204.7918031667,0.707489013671875,-0.919677734375,-0.2719879150390625,459204.7880451667,0.3672845363616943,0.1527083218097687,0.03730689361691475
1595773541.474468,36,0,459204.8256681667,0.299346923828125,-1.053787231445312,-0.1269073486328125,459204.8219021667,0.06025561690330505,-0.6445915102958679,0.7642372250556946
1595773541.513448,37,0,459204.8595251667,0.1713714599609375,-0.7890777587890625,-0.0288238525390625,459204.8557671667,0.1582221239805222,-1.207993626594543,-0.3210794925689697
1595773541.542314,38,0,459204.8933901667,0.0836334228515625,-0.907318115234375,-0.05206298828125,459204.8896241667,0.2123905569314957,-0.7058934569358826,-0.03539181128144264
1595773541.57479,39,0,459204.9272471667,0.26898193359375,-0.960418701171875,0.0253753662109375,459204.9234891667,0.07585721462965012,-0.3044176995754242,0.1649753749370575
1595773541.611604,40,0,459204.9611131667,0.28680419921875,-0.9602508544921875,0.1368408203125,459204.9573461667,-0.1115499660372734,-0.3793377280235291,-0.294430285692215
1595773541.642551,41,0,459204.9949701667,0.282989501953125,-1.09423828125,0.311248779296875,459204.9912111667,-0.06755427271127701,-0.007735151331871748,-0.07691369205713272
1595773541.688961,42,0,459205.0288351667,0.1738739013671875,-0.98779296875,0.100799560546875,459205.0250681667,-0.4909026026725769,0.08228582143783569,0.1193599477410316
1595773541.71034,43,0,459205.0626921667,0.2261505126953125,-0.8825225830078125,0.0624237060546875,459205.0589341667,-0.3368403315544128,0.3602218329906464,-0.2122097313404083
1595773541.749626,44,0,459205.0965571667,0.41796875,-1.05462646484375,0.020843505859375,459205.0927911667,-0.4277388155460358,0.4878056347370148,0.1475875973701477
1595773541.777984,45,0,459205.1304141667,0.0887298583984375,-0.960418701171875,0.059814453125,459205.1266561667,-0.7742022275924683,0.1617841124534607,0.002983006648719311
1595773541.813149,46,0,459205.1642791667,0.1082611083984375,-0.8632354736328125,0.30145263671875,459205.1605131667,-0.8730835318565369,1.253274321556091,-0.3798117637634277
1595773541.845806,47,0,459205.1981361667,0.3874664306640625,-1.109161376953125,0.3050384521484375,459205.1943781667,-1.641464114189148,1.736104846000671,-0.05704570934176445
1595773541.880823,48,0,459205.2320021667,0.1728973388671875,-1.016036987304688,0.0738525390625,459205.2282351667,-2.100342512130737,1.142969846725464,-0.5475221872329712
1595773541.929995,49,0,459205.2658591667,0.2618408203125,-0.86749267578125,0.0792694091796875,459205.2621001667,-3.179708242416382,4.116620063781738,-1.351634621620178
1595773541.948442,50,0,459205.2997241667,0.3651123046875,-0.878082275390625,-0.1075897216796875,459205.2959581667,-5.412481784820557,7.664253711700439,-1.059921860694885
1595773541.991445,51,0,459205.3335811667,0.5445709228515625,-1.394302368164062,0.235748291015625,459205.3298231667,-6.180848598480225,7.357118606567383,-0.4714892208576202
1595773542.016302,52,0,459205.3674461667,1.105697631835938,0.0185394287109375,0.4492950439453125,459205.3636801667,-3.549505472183228,6.350112438201904,-1.37415885925293
1595773542.052273,53,0,459205.4013031667,2.504730224609375,0.0615081787109375,-0.7845611572265625,459205.3975451667,-0.6848227977752686,5.450180530548096,1.735016942024231
1595773542.083945,54,0,459205.4351681667,0.86407470703125,-0.7606353759765625,-1.29425048828125,459205.4314021667,-1.275307178497314,1.397188782691956,-0.3596777319908142
1595773542.116594,55,0,459205.4690251667,0.363067626953125,-0.030029296875,-0.91082763671875,459205.4652671667,-2.06120753288269,-0.01905092224478722,-1.170563936233521
1595773542.166557,56,0,459205.5028911667,1.564529418945312,1.77630615234375,0.0558319091796875,459205.4991241667,0.3294799029827118,0.8667407035827637,1.778629899024963
1595773542.18467,57,0,459205.5367481667,1.2760009765625,-0.21307373046875,-0.12506103515625,459205.5329901667,2.242575168609619,0.08271538466215134,0.5249695181846619
1595773542.230751,58,0,459205.5706131667,0.9718170166015625,-1.899627685546875,0.11737060546875,459205.5668471667,0.2109332829713821,-0.775495707988739,-1.927386879920959
1595773542.252097,59,0,459205.6044701667,0.39117431640625,-1.134613037109375,0.4520263671875,459205.6007121667,-2.930437803268433,0.815909206867218,0.4455545842647552
1595773542.289969,60,0,459205.638335375,0.77679443359375,-0.3426971435546875,0.0410308837890625,459205.634569375,-0.9571132063865662,2.79794979095459,2.117440462112427
1595773542.319937,61,0,459205.672192375,0.5828094482421875,-0.834747314453125,-0.0748291015625,459205.668434375,-0.2732392549514771,2.982767105102539,1.024081587791443
1595773542.35485,62,0,459205.706057375,0.319793701171875,-1.108871459960938,0.1274261474609375,459205.702291375,-0.9124757051467896,0.6077299118041992,-0.2884547114372253
1595773542.387654,63,0,459205.739914375,1.16015625,-0.7867584228515625,0.08489990234375,459205.736156375,0.2846346497535706,0.2538029849529266,0.9486525654792786
1595773542.422666,64,0,459205.773780375,0.57672119140625,-0.539306640625,-0.4202880859375,459205.770013375,-0.6749497056007385,-0.7348641157150269,0.2464321404695511
1595773542.473234,65,0,459205.807637375,0.0440673828125,-0.491119384765625,-0.253936767578125,459205.803879375,-0.1460424214601517,-0.1312443017959595,-0.3845141232013702
1595773542.490319,66,0,459205.841502375,0.6310272216796875,-0.5953369140625,-0.0733642578125,459205.837735375,0.4088335633277893,0.5167275667190552,0.2469780892133713
1595773542.52705,67,0,459205.875359375,1.1065673828125,-0.8056488037109375,-0.1361846923828125,459205.8716013751,0.1851016730070114,-0.07597093284130096,0.2261444479227066
1595773542.558099,68,0,459205.909224375,0.73382568359375,-0.843414306640625,-0.239410400390625,459205.9054583751,0.3020317554473877,-1.611700654029846,-0.3885176479816437
1595773542.590676,69,0,459205.943081375,0.8405303955078125,-0.7575836181640625,-0.2523193359375,459205.939323375,-0.0396542027592659,-0.5589205622673035,0.2019195407629013
1595773542.625975,70,0,459205.976946375,0.5355224609375,-0.7105560302734375,-0.0899505615234375,459205.973180375,0.1124330684542656,-0.4294973015785217,0.4489969611167908
1595773542.658362,71,0,459206.010803375,0.321746826171875,-0.9570465087890625,0.0081939697265625,459206.007045375,0.2839078903198242,-0.9839107394218445,-0.07954009622335434
1595773542.71196,72,0,459206.0446693751,0.9959564208984375,-0.8453826904296875,0.1691741943359375,459206.040902375,-0.2904259562492371,0.7154126763343811,0.04669613391160965
1595773542.726544,73,0,459206.078526375,0.8815155029296875,-0.431243896484375,-0.0507049560546875,459206.074767375,-0.03783899173140526,-0.5411987900733948,0.549761950969696
1595773542.772158,74,0,459206.112391375,0.280914306640625,-0.826141357421875,-0.0615692138671875,459206.108624375,0.180273100733757,-0.9872844219207764,0.2496953159570694
1595773542.794031,75,0,459206.146248375,0.2799072265625,-1.001358032226562,-0.0518035888671875,459206.142490375,-0.2124163955450058,-0.09098184108734131,-0.3055956065654755
1595773542.830707,76,0,459206.180113375,0.57867431640625,-0.637237548828125,-0.191436767578125,459206.176347375,-0.225534051656723,0.7227755188941956,-0.1552124917507172
1595773542.861569,77,0,459206.213970375,0.887969970703125,-0.51995849609375,-0.29296875,459206.210212375,-0.2396578639745712,0.2318036705255508,0.05193377286195755
1595773542.896587,78,0,459206.247835375,0.984771728515625,-0.6775054931640625,-0.1756439208984375,459206.244069375,-0.03409272432327271,-0.7345789074897766,-0.1381248533725739
1595773542.931216,79,0,459206.281692375,0.505859375,-0.93017578125,-0.129150390625,459206.277934375,-0.2309559881687164,-1.294822216033936,-0.2230639755725861
1595773542.964226,80,0,459206.315558375,0.46820068359375,-0.75067138671875,-0.1855010986328125,459206.311791375,-0.2818055748939514,-0.3484527766704559,-0.02009674534201622
1595773543.01113,81,0,459206.349415375,0.8868408203125,-0.658203125,-0.3009033203125,459206.3456563751,-0.09850766509771347,0.2602574229240417,0.1271574199199677
1595773543.032151,82,0,459206.383280375,0.647064208984375,-0.642303466796875,-0.25640869140625,459206.3795133751,-0.3152333199977875,-1.016149401664734,0.04427105933427811
1595773543.070776,83,0,459206.417137375,0.6201171875,-0.734466552734375,-0.1007232666015625,459206.413379375,-0.1582367718219757,-0.4728474318981171,-0.04313362017273903
1595773543.099834,84,0,459206.451002375,0.4716033935546875,-0.8776397705078125,-0.23785400390625,459206.447235375,-0.234854593873024,-0.4208745360374451,0.06657610088586807
1595773543.132549,85,0,459206.4848593751,0.481842041015625,-0.716400146484375,-0.2183990478515625,459206.481101375,-0.4477868378162384,-0.2213947027921677,-0.0551639199256897
1595773543.167572,86,0,459206.5187243751,0.6378173828125,-0.7105560302734375,-0.2004852294921875,459206.514958375,-0.3567125797271729,0.4998873174190521,-0.1014123782515526
1595773543.20016,87,0,459206.552581375,0.6430816650390625,-0.9051513671875,-0.394775390625,459206.548823375,-0.2325118035078049,-0.09374300390481949,0.147618755698204
1595773543.25013,88,0,459206.586446375,0.77850341796875,-0.5521697998046875,-0.2490081787109375,459206.582680375,-0.2787991464138031,-0.5411785840988159,-0.3423040807247162
1595773543.267934,89,0,459206.6203031667,0.888671875,-0.3969573974609375,-0.4710235595703125,459206.616545375,-0.5200261473655701,-0.4857653677463531,-0.2276621907949448
1595773543.30764,90,0,459206.6541691667,0.3964996337890625,-0.86859130859375,-0.419677734375,459206.6504021667,0.08007246255874634,-1.000361084938049,0.3055860102176666
1595773543.335734,91,0,459206.6880261667,0.2794189453125,-1.0789794921875,-0.2055206298828125,459206.6842671667,-0.4993557631969452,-0.2402213960886002,-0.1615308374166489
1595773543.370606,92,0,459206.7218911667,0.5191497802734375,-0.548980712890625,-0.239654541015625,459206.7181241667,-0.5164726972579956,0.9395171403884888,-0.3763584494590759
1595773543.403361,93,0,459206.7557481667,0.8194122314453125,-0.5085296630859375,-0.430450439453125,459206.7519901667,-0.03972584009170532,0.3023982048034668,0.16219262778759
1595773543.43847,94,0,459206.7896131667,0.8224639892578125,-0.7186431884765625,-0.452728271484375,459206.7858471667,-0.3260430991649628,-0.4863211810588837,-0.2355768382549286
1595773543.471488,95,0,459206.8234701667,0.7193145751953125,-0.6400604248046875,-0.4555511474609375,459206.8197121667,-0.2186899930238724,-0.3125086426734924,-0.100888267159462
1595773543.506135,96,0,459206.8573351667,0.591064453125,-0.5658416748046875,-0.3666534423828125,459206.8535691667,0.1165678948163986,-0.452492892742157,0.1268349140882492
1595773543.549447,97,0,459206.8911921667,0.6423187255859375,-0.707611083984375,-0.4876556396484375,459206.8874341667,-0.00950908288359642,-0.8487353324890137,0.001633849344216287
1595773543.573816,98,0,459206.9250571667,0.6244964599609375,-0.777923583984375,-0.469573974609375,459206.9212911667,-0.1526936739683151,-0.7793921828269958,0.07724551856517792
1595773543.608451,99,0,459206.9589141667,0.548614501953125,-0.651458740234375,-0.4307098388671875,459206.9551561667,-0.1113816499710083,-0.555816650390625,0.2074807584285736
1595773543.641716,100,0,459206.9927801667,0.459442138671875,-0.71856689453125,-0.375030517578125,459206.9890131667,-0.0666876807808876,-0.2699832916259766,-0.1537421643733978
1595773543.674156,101,0,459207.0266371667,0.658782958984375,-0.5749359130859375,-0.505767822265625,459207.0228781667,0.03642405569553375,-0.08071295171976089,-0.04751665145158768
1595773543.711024,102,0,459207.0605021667,0.633819580078125,-0.6161956787109375,-0.42205810546875,459207.0567351667,0.05663318559527397,-0.02930063009262085,-0.1802941411733627
1595773543.742371,103,0,459207.0943591667,0.46734619140625,-0.8892822265625,-0.4478302001953125,459207.0906011667,0.0455685518682003,-0.1985343992710114,-0.03264449536800385
1595773543.789538,104,0,459207.1282241667,0.51690673828125,-0.683990478515625,-0.565582275390625,459207.1244581667,0.12099539488554,-0.1683783531188965,0.1904072314500809
1595773543.809698,105,0,459207.1620811667,0.6761932373046875,-0.4598388671875,-0.51580810546875,459207.1583231667,-0.007063768338412046,-0.07124648243188858,-0.3337886333465576
1595773543.849765,106,0,459207.1959461667,0.597137451171875,-0.6986236572265625,-0.4701690673828125,459207.1921801667,0.1637891978025436,-0.1408806890249252,-0.003791276132687926
1595773543.877406,107,0,459207.2298031667,0.5091552734375,-0.7760772705078125,-0.361114501953125,459207.2260451667,0.03746774792671204,-0.1169929355382919,-0.1113299876451492
1595773543.912412,108,0,459207.2636681667,0.535919189453125,-0.6044158935546875,-0.4309539794921875,459207.2599021667,-0.01568814925849438,-0.1312419027090073,-0.3755352795124054
1595773543.945224,109,0,459207.2975251667,0.6295013427734375,-0.61798095703125,-0.4815216064453125,459207.2937671667,0.07344944775104523,-0.09940221905708313,-0.2767357230186462
1595773543.980165,110,0,459207.3313911667,0.5523223876953125,-0.7371368408203125,-0.4661865234375,459207.3276241667,0.09346123784780502,-0.04479650035500526,-0.1216233670711517
1595773544.02913,111,0,459207.3652481667,0.553314208984375,-0.621856689453125,-0.433624267578125,459207.3614891667,-0.02608166821300983,0.2854586541652679,0.2087502777576447
