loggingTime,loggingSample,identifierForVendor,motionTimestamp_sinceReboot,motionYaw,motionRoll,motionPitch,motionRotationRateX,motionRotationRateY,motionRotationRateZ,motionUserAccelerationX,motionUserAccelerationY,motionUserAccelerationZ,motionAttitudeReferenceFrame,motionQuaternionX,motionQuaternionY,motionQuaternionZ,motionQuaternionW,motionGravityX,motionGravityY,motionGravityZ,motionMagneticFieldX,motionMagneticFieldY,motionMagneticFieldZ,motionMagneticFieldCalibrationAccuracy
1596230595.88742,1,0,102928.06604975,1.90030558882181,-1.013687187105058,1.116077901722281,0.1555680185556412,-0.02724210545420647,-0.0439351312816143,-0.02793258428573608,0.02405023574829102,-0.03974169492721558,2,0.6042184962510458,0.1371397651207655,0.4538496298199733,0.640416567575664,-0.3727955222129822,-0.8983847498893738,-0.2322253882884979,-26.24527740478516,-43.99390411376953,11.33364868164062,2
1596230595.904784,2,0,102928.09614775,1.905482052951355,-1.019900599026546,1.118325129696672,0.1989195346832275,-0.07941058278083801,0.03756136447191238,-0.00841599702835083,-0.002493739128112793,0.004227757453918457,2,0.6055186789484368,0.1375627540624163,0.4529343444268575,0.6397454807985712,-0.3725101053714752,-0.899369478225708,-0.2288472354412079,-26.21506500244141,-44.02445220947266,11.50091552734375,2
1596230595.94269,3,0,102928.12624675,1.915078821116495,-1.028131693917549,1.120216873358143,0.1117268055677414,-0.0170495193451643,0.01310351304709911,-0.02865731716156006,-0.00351870059967041,-0.01851677894592285,2,0.606922967766645,0.1385544269984395,0.4529213308251198,0.6382081739617522,-0.3729235827922821,-0.9001948833465576,-0.2248943597078323,-26.33596038818359,-44.23366546630859,11.5419921875,2
1596230595.964869,4,0,102928.15634475,1.927739009315883,-1.037475785182151,1.120374007175297,0.1880069822072983,0.104092612862587,0.127138689160347,-0.01299524307250977,0.005080223083496094,-0.05437356233596802,2,0.6081779855896901,0.1394829176644891,0.4540672053144866,0.6359931703249643,-0.3748869895935059,-0.9002633094787598,-0.2213281095027924,-26.26064300537109,-43.98377227783203,11.99661254882812,2
1596230596.005534,5,0,102928.18644375,1.940096615871603,-1.051299062827509,1.118222260276239,0.094167560338974,-0.361523449420929,0.1786460131406784,-0.06508085131645203,0.05449807643890381,-0.04739749431610107,2,0.6102460912957374,0.1380458268803522,0.4544459505737165,0.6340522022772954,-0.3795911967754364,-0.8993244767189026,-0.2170861214399338,-26.28352355957031,-43.79840850830078,12.04376220703125,2
1596230596.025041,6,0,102928.21654275,1.952872515812995,-1.074459588738767,1.117873412437745,0.1760509759187698,-0.27603480219841,-0.1287654787302017,-0.01192638278007507,0.1197731494903564,0.03387188911437988,2,0.6145883324619252,0.1344914101599274,0.4515080817900873,0.6327194419360623,-0.3847925364971161,-0.8991718888282776,-0.2083864808082581,-26.37229919433594,-43.42972564697266,12.43246459960938,2
1596230596.063842,7,0,102928.24664075,1.949538966265656,-1.075159532423799,1.126805967072995,0.1173798963427544,-0.08430912345647812,-0.3569580316543579,-0.01559925079345703,0.02305221557617188,0.001641809940338135,2,0.6157853195096914,0.1366163805662748,0.4474610407429401,0.633974026733753,-0.3778574168682098,-0.9030448198318481,-0.2042888104915619,-25.96087646484375,-43.29193878173828,12.86807250976562,2
1596230596.087159,8,0,102928.27673975,1.952648892730494,-1.081902116068964,1.13243341651058,0.04788390174508095,-0.2284435778856277,0.05638632923364639,0.04675599932670593,-0.01560395956039429,0.04802387952804565,2,0.6175790232895808,0.1375600639970066,0.4446136407883243,0.6340286508582937,-0.3747340738773346,-0.905447781085968,-0.1993467509746552,-25.61924743652344,-43.54981994628906,13.00762939453125,2
1596230596.123478,9,0,102928.30683775,1.955917667286091,-1.093423853075213,1.133441998976695,0.1318456530570984,-0.3319292962551117,-0.11212457716465,0.05841410160064697,0.03216230869293213,-0.01260805130004883,2,0.6199968437901551,0.1352986762019426,0.4417700986237172,0.6341432061120187,-0.3761946558952332,-0.9058753848075867,-0.1945963650941849,-25.53665161132812,-43.61203765869141,13.17901611328125,2
1596230596.14548,10,0,102928.33693675,1.958715210717662,-1.108919024809969,1.137465239369132,0.03020035289227962,-0.4557923078536987,-0.02957688830792904,0.02257657051086426,-0.07155585289001465,0.01786684989929199,2,0.623549101045391,0.1327680642829972,0.4365800844788909,0.634789056213513,-0.3758988082408905,-0.9075720906257629,-0.1871183216571808,-25.38865661621094,-43.67818450927734,13.68508911132812,2
1596230596.186762,11,0,102928.36703575,1.966873476928768,-1.126664285597603,1.137452266655533,0.2618493437767029,-0.2541153728961945,0.06493917107582092,-0.1180277764797211,0.07716608047485352,-0.07304072380065918,2,0.6268733058598918,0.1296839414313273,0.4336250499867207,0.6341777599057448,-0.3791705965995789,-0.9075666069984436,-0.1804238706827164,-24.91225433349609,-43.281982421875,14.40402221679688,2
1596230596.205593,12,0,102928.39713375,1.980265147318504,-1.144179357413492,1.142942681812204,0.1394196748733521,-0.1510773152112961,-0.2527252733707428,-0.1714132726192474,0.06645840406417847,-0.01235908269882202,2,0.6301967067713592,0.1304097262629769,0.4306348834642596,0.6327710418699948,-0.3777303695678711,-0.9098584055900574,-0.171690821647644,-24.89572906494141,-43.38442993164062,14.36776733398438,2
1596230596.242482,13,0,102928.42723275,1.985843205425066,-1.152836181311689,1.153238416880686,0.3191502392292023,-0.07047106325626373,-0.2056451439857483,0.053192138671875,-0.0910491943359375,-0.0177122950553894,2,0.6323997439160296,0.1332998865211912,0.4264177582789869,0.6328268903203429,-0.3706214427947998,-0.9140819907188416,-0.1646034121513367,-24.54300689697266,-43.49416351318359,14.98617553710938,2
1596230596.268511,14,0,102928.45733075,1.998710758104419,-1.169990377073761,1.157635614946759,0.06431598216295242,-0.326054573059082,-0.0132663156837225,0.05064171552658081,0.0007458925247192383,0.0659937858581543,2,0.6354708506454192,0.133606852239901,0.4236558293102655,0.6315393619067319,-0.3696858882904053,-0.9158563613891602,-0.1566520184278488,-24.39065551757812,-43.66110992431641,15.26370239257812,2
1596230596.302438,15,0,102928.48742975,1.998912519011288,-1.184076421541894,1.159109972563129,-0.01069733034819365,-0.6280397176742554,-0.009470240212976933,0.02831894159317017,0.07475495338439941,0.009463071823120117,2,0.6385132735610864,0.129772384441199,0.4187657702581928,0.6325309832606463,-0.3706049025058746,-0.9164473414421082,-0.1509198546409607,-24.07069396972656,-43.72503662109375,15.40277099609375,2
1596230596.326068,16,0,102928.51752775,1.995901604573545,-1.203833976004878,1.156824581883978,-0.1967926770448685,-0.8225347399711609,0.05866345763206482,-0.0508580207824707,0.09640824794769287,0.06747007369995117,2,0.6426743805891404,0.1216956091737882,0.412209668944276,0.6342264681944865,-0.3754680454730988,-0.9155304431915283,-0.1443196386098862,-23.79471588134766,-43.60719299316406,15.90066528320312,2
1596230596.367714,17,0,102928.54762675,1.984832162625833,-1.217308943497555,1.155674278336854,-0.0455445796251297,-0.6252894997596741,-0.04825184866786003,-0.008598297834396362,-0.06258487701416016,-0.1134191155433655,2,0.6460114762500417,0.1134166105909596,0.4047157829070587,0.6371900117383724,-0.378366231918335,-0.9150670766830444,-0.139611691236496,-23.51531219482422,-43.67279815673828,16.11834716796875,2
1596230596.38615,18,0,102928.5777247917,1.98508713961686,-1.233356812969048,1.15370631589579,-0.02350852079689503,-0.5683876276016235,0.1868946254253387,0.02174276113510132,0.02535390853881836,-0.1641690731048584,2,0.6491167084470688,0.1076499546158032,0.4002281566808819,0.637868779602892,-0.3822564780712128,-0.9142716526985168,-0.1341179758310318,-23.31835174560547,-43.50621032714844,16.36331176757812,2
1596230596.422713,19,0,102928.6078227917,1.991348322290187,-1.259213269943113,1.149599065405978,-0.007100893184542656,-0.7593180537223816,0.1653871834278107,0.1420446634292603,-0.08618855476379395,-0.1145337224006653,2,0.6537174419858132,0.09991588755979508,0.395112376279099,0.6376180510802526,-0.3891673684120178,-0.9126001000404358,-0.1253406405448914,-23.06686401367188,-43.49775695800781,17.04556274414062,2
1596230596.446466,20,0,102928.6379217917,1.984777652867903,-1.291562861250911,1.133999878218421,-0.3589338064193726,-1.887565612792969,0.7272558808326721,0.3142801225185394,-0.004371762275695801,-0.190839946269989,2,0.6595719659354479,0.08164586835052035,0.3873630714194763,0.6389434300713327,-0.4066534638404846,-0.9061115384101868,-0.1165975481271744,-23.00395965576172,-43.40066528320312,17.116455078125,2
1596230596.486752,21,0,102928.6680197917,1.986598933533076,-1.359232538185001,1.112175463542193,0.07172947376966476,-2.200655698776245,0.622768223285675,0.1956996023654938,0.2369213104248047,-0.1091591119766235,2,0.6713810807442899,0.05258397866739456,0.3723688775405781,0.6386109623085447,-0.432841420173645,-0.8966639041900635,-0.09296473860740662,-22.98390197753906,-43.20835113525391,18.07400512695312,2
1596230596.506486,22,0,102928.6981187917,2.021403973656748,-1.440118471773917,1.10094974583068,0.8212326169013977,-0.8796330094337463,0.189397007226944,-0.3808823525905609,0.3418119549751282,0.265724778175354,2,0.6850593622775867,0.03457744723497969,0.3595592281256472,0.6326258177986426,-0.4488896727561951,-0.8916377425193787,-0.05899614095687866,-22.57606506347656,-42.62399291992188,19.2269287109375,2
1596230596.541342,23,0,102928.7282167917,2.078317395029132,-1.484814998705667,1.113197250308118,0.8332493305206299,0.9907583594322205,-0.8399125933647156,-0.5725887417793274,0.2156965732574463,0.09266245365142822,2,0.692131113910111,0.04455120783690042,0.3582090187589407,0.625025008309755,-0.4401639699935913,-0.8971158266067505,-0.03793942183256149,-22.44712066650391,-42.39881896972656,20.87890625,2
1596230596.568627,24,0,102928.7583157917,2.127592538997629,-1.512877002346427,1.148135656254742,0.6065818071365356,-0.06692609190940857,-1.212026953697205,-0.1451901793479919,-0.1501353979110718,-0.111484706401825,2,0.6955902178521792,0.06543672146361473,0.35290263047852,0.6223601115460825,-0.4095008373260498,-0.9120007753372192,-0.02374456822872162,-21.07234191894531,-42.48493194580078,21.77700805664062,2
1596230596.602525,25,0,102928.7884147917,2.158781943018105,-1.559021056551064,1.179025049628131,0.4023187458515167,-0.6792334914207458,-0.6799925565719604,0.3804568350315094,-0.0006499290466308594,0.1716312170028687,2,0.7017355266799251,0.07293316233175412,0.3368445737177478,0.623525443000521,-0.3818002343177795,-0.9242342114448547,-0.00449600862339139,-19.91921234130859,-42.5166015625,22.34494018554688,2
1596230596.627185,26,0,102928.8185127917,2.195910089215474,-1.615713573416537,1.191755424049614,0.3855263888835907,-1.070225358009338,-0.3847218751907349,-0.04432791471481323,-0.1317694187164307,-0.01833271980285645,2,0.7092263758016149,0.0728389944411858,0.3244484949726106,0.6216315291161909,-0.3696568310260773,-0.9290199279785156,0.01661514304578304,-18.56234741210938,-42.39364624023438,23.46768188476562,2
1596230596.662979,27,0,102928.8486117917,2.222136834208524,-1.668712104689955,1.208619899490884,0.2957742214202881,-0.2445239871740341,-0.6427910327911377,0.05836057662963867,-0.03382682800292969,0.04340064525604248,2,0.7156857981815018,0.07150133271205167,0.3085366214418498,0.6224843020822437,-0.352613627910614,-0.9351279139518738,0.0346372053027153,-17.63685607910156,-42.54418182373047,24.01751708984375,2
1596230596.68711,28,0,102928.8787097917,2.265953821174522,-1.704878232073168,1.221200589856899,0.5102917551994324,0.210392564535141,-0.3924680650234222,0.07748168706893921,-0.07430541515350342,-0.05174970626831055,2,0.7186481793982832,0.08024218189451893,0.30534800385376,0.6195713719151804,-0.3394440710544586,-0.939511239528656,0.04578802734613419,-16.65068817138672,-42.46605682373047,24.85824584960938,2
1596230596.723186,29,0,102928.9088087917,2.302465977147687,-1.73667955754215,1.230334652910068,0.1463557779788971,0.001200020313262939,-0.2447939217090607,0.3982169330120087,-0.01726460456848145,0.3507595062255859,2,0.7211590390193396,0.08659616295095429,0.302454539124583,0.6172132286393803,-0.3293390572071075,-0.9426006078720093,0.05513850972056389,-16.37511444091797,-42.48724365234375,25.15750122070312,2
1596230596.747292,30,0,102928.9389067917,2.309484369248265,-1.747276618540291,1.229741114737718,0.1035159528255463,-0.4070256650447845,0.2179314196109772,0.2916884124279022,-0.06640052795410156,-0.05592036247253418,2,0.7225118028496778,0.08566499029730851,0.3009705576645787,0.616486096012323,-0.3292870223522186,-0.9424022436141968,0.05872359126806259,-16.18517303466797,-42.13596343994141,25.49716186523438,2
1596230596.781977,31,0,102928.9690057917,2.31725098790369,-1.772883346145025,1.222059059976309,0.2013697624206543,-0.7271913886070251,0.1733464300632477,-0.04558491706848145,0.1034824848175049,-0.1217041015625,2,0.7267715512990326,0.07807923468318811,0.296346603792526,0.6147240619228103,-0.3347581923007965,-0.9398049712181091,0.06858650594949722,-15.97862243652344,-42.07342529296875,25.563232421875,2
1596230596.807535,32,0,102928.9991037917,2.342996181776152,-1.810386574474613,1.218709646166635,0.327409029006958,0.01510034501552582,0.01391614135354757,0.02844351530075073,-0.06981766223907471,0.1366242170333862,2,0.731649161739404,0.07488438529406299,0.2915396713189468,0.6116262128634087,-0.3350070118904114,-0.9386551380157471,0.08183633536100388,-15.76043701171875,-41.86759948730469,26.34750366210938,2
1596230596.842987,33,0,102929.0292027917,2.356159764714715,-1.815364686385563,1.208408244806011,0.3119426965713501,0.1166317164897919,0.535484790802002,-0.04715275764465332,-0.008069872856140137,-0.2223230600357056,2,0.7330154782599179,0.07488830547107073,0.2966846575872739,0.6075018194907582,-0.3439593315124512,-0.9350528717041016,0.0858398973941803,-15.65031433105469,-41.50164794921875,26.539306640625,2
1596230596.868707,34,0,102929.0593007917,2.383869349902624,-1.84284173161742,1.194788212776195,0.3911175429821014,-0.1153525114059448,0.07060892134904861,0.1040236353874207,0.1237736344337463,0.1268383264541626,2,0.7376219923940637,0.07244991903885911,0.2988065102194557,0.6011486227812428,-0.3537061810493469,-0.9301379323005676,0.09867038577795029,-16.50706481933594,-41.02452850341797,27.01419067382812,2
1596230596.902836,35,0,102929.0893997917,2.398026240438969,-1.861360597598632,1.18891088099495,0.1256342083215714,-0.2719601988792419,0.3683708012104034,0.04219704866409302,-0.1716432571411133,0.1347130537033081,2,0.7405699304478657,0.07028542590439107,0.2978427895030177,0.5982524970539165,-0.357049971818924,-0.9279636144638062,0.1067677289247513,-16.39650726318359,-40.93785858154297,27.23873901367188,2
1596230596.928053,36,0,102929.1194977917,2.394105538868353,-1.862774478810081,1.175536344343175,0.06892453134059906,-0.1531316637992859,0.4061915874481201,0.165112316608429,0.09313315153121948,0.3007102012634277,2,0.742490114671836,0.06423381209829743,0.2998425890504818,0.595547608830729,-0.368751734495163,-0.9228965044021606,0.1108351051807404,-16.76174926757812,-40.52357482910156,27.66806030273438,2
1596230596.964237,37,0,102929.1495967917,2.374577473433779,-1.851798366354856,1.164940818496441,-0.4484641253948212,-0.4094369411468506,0.5251649618148804,0.1581708788871765,-0.04949784278869629,0.2676684856414795,2,0.7426322479539124,0.05692767602482296,0.3010388451779278,0.5955101554526337,-0.3793202936649323,-0.9187649488449097,0.1094868332147598,-16.78129577636719,-40.64363861083984,27.5823974609375,2
1596230596.988141,38,0,102929.1796957917,2.316329560821147,-1.825821777329702,1.148342890030638,-0.7922451496124268,-1.35869574546814,0.883741021156311,0.1711892187595367,-0.1409090757369995,0.2329597473144531,2,0.741813601677981,0.03778817074179941,0.297955017070002,0.5995895913743676,-0.3967393934726715,-0.9120857715606689,0.1034307330846786,-17.14732360839844,-40.67839813232422,27.32254028320312,2
1596230597.022455,39,0,102929.2097937917,2.221495550556265,-1.788555016816028,1.126885081250022,-1.41234302520752,-1.946581602096558,1.203669905662537,0.2644650936126709,-0.001296520233154297,0.3943861722946167,2,0.7391510174272595,0.006934449463306569,0.2893641682305653,0.6081745202722919,-0.4193329215049744,-0.9030787944793701,0.09278462827205658,-16.93743133544922,-40.93090057373047,26.68862915039062,2
1596230597.051963,40,0,102929.2398927917,2.071777260211402,-1.737813200686886,1.090835124352622,-2.627994537353516,-3.913814783096313,2.024982452392578,0.08654266595840454,-0.0925789475440979,0.2125084400177002,2,0.7323861362565077,-0.04462209784465149,0.2729384860393981,0.6221929720935977,-0.4553198516368866,-0.8870128393173218,0.07676117122173309,-16.87661743164062,-41.21195220947266,26.11865234375,2
1596230597.084675,41,0,102929.2699907917,1.843060374412715,-1.693160294005294,1.028488768650731,-4.226555347442627,-6.502679347991943,3.259907007217407,0.3399194478988647,-0.4278861284255981,0.2031461000442505,2,0.7164862667056072,-0.1347055146657502,0.2367324973648921,0.6422302762142638,-0.512255072593689,-0.8565199971199036,0.06299629062414169,-16.21970367431641,-42.76299285888672,23.75347900390625,2
1596230597.108569,42,0,102929.3000897917,1.560375570316064,-1.689536763227554,0.9184043375341183,-5.382572650909424,-8.609501838684082,5.20070219039917,0.6166682839393616,-0.1626304984092712,0.3607757091522217,2,0.6806892869560527,-0.2694818846010972,0.1830272842631288,0.6561576737116328,-0.6028146147727966,-0.7946339249610901,0.07191678136587143,-16.46535491943359,-43.80470275878906,22.04214477539062,2
1596230597.144395,43,0,102929.3301877917,1.254060305343667,-1.742220809502416,0.775511809932242,-6.423885822296143,-10.04787921905518,5.674578666687012,0.4745503664016724,-0.009329140186309814,0.4157458543777466,2,0.612735079439056,-0.4306510803676218,0.1155522750122101,0.652490025823623,-0.7035969495773315,-0.7000816464424133,0.121809259057045,-18.68846130371094,-44.81483459472656,17.47073364257812,2
1596230597.16992,44,0,102929.3602867917,0.9715531938836659,-1.878724410525704,0.6671293488298815,-5.951069355010986,-11.08959293365479,4.703788280487061,0.6237342357635498,0.01891326904296875,0.5105389356613159,2,0.527010515043602,-0.5842190014268096,0.02671049233595291,0.616631821048597,-0.7486494779586792,-0.6187333464622498,0.2381038516759872,-20.1634521484375,-44.80148315429688,15.68295288085938,2
1596230597.201291,45,0,102929.3903847917,0.6961005933404402,-2.048669972587081,0.5920503976503989,-5.767964839935303,-10.96855354309082,5.856802463531494,0.6414420604705811,0.3043534159660339,0.7972228527069092,2,0.4212288807746007,-0.7165020160198736,-0.06476123973388459,0.5522656619770918,-0.7368403077125549,-0.5580636262893677,0.3816178143024445,-22.83803558349609,-44.50430297851562,13.5723876953125,2
1596230597.228951,46,0,102929.4204837917,0.4147846271539578,-2.222665838336983,0.530541202986081,-5.686076164245605,-9.319355964660645,5.432037830352783,0.2303522229194641,0.8145363330841064,1.027498722076416,2,0.2918712750314713,-0.822465436946767,-0.1418256764397081,0.4671696229674964,-0.6856720447540283,-0.5060002207756042,0.5232764482498169,-24.80014038085938,-43.34928131103516,13.37728881835938,2
1596230597.263783,47,0,102929.4505817917,0.1813553915887897,-2.323809470253233,0.5492462585959675,-4.344493865966797,-6.240145683288574,2.04821515083313,-0.8320686221122742,0.4583788514137268,-0.3440506458282471,2,0.1873527498250045,-0.8697867607032048,-0.213151773852544,0.4036538449308448,-0.6223164200782776,-0.5220444798469543,0.5832601189613342,-28.59046936035156,-41.48727416992188,12.52252197265625,2
1596230597.289223,48,0,102929.4806807917,0.1118696763430037,-2.456156387710135,0.5771779411641571,-0.3271521627902985,-4.074379920959473,-0.01434756442904472,-0.4660516381263733,0.877597451210022,0.9890677928924561,2,0.1459667544942919,-0.8961372167491202,-0.2496195244053274,0.3366332269481879,-0.5304667949676514,-0.5456612110137939,0.6487364172935486,-28.33616638183594,-41.51846313476562,12.83944702148438,2
1596230597.32272,49,0,102929.5107787917,0.1236326090333414,-2.440033989626076,0.5793221587903404,1.03271472454071,4.874646663665771,-0.7798959016799927,-0.6752803325653076,0.4499133825302124,1.514521837234497,2,0.1535608122109088,-0.8922004493315283,-0.247377802081435,0.3452562154720821,-0.5401004552841187,-0.5474568009376526,0.6392051577568054,-27.22106170654297,-41.64088439941406,14.0594482421875,2
1596230597.351931,50,0,102929.5408777917,0.2103679890944996,-2.302755663813286,0.563766589335789,2.29549765586853,7.237729549407959,-1.908184766769409,-1.060514688491821,-0.1071872115135193,0.5720627307891846,2,0.2047567039273753,-0.8605385602752458,-0.2115835629589044,0.4156690644703921,-0.6287522315979004,-0.5343737006187439,0.5649038553237915,-27.55205535888672,-41.77449798583984,12.98861694335938,2
1596230597.385573,51,0,102929.5709757917,0.2937769867345448,-2.165926345139181,0.5987202871340479,-0.3133647739887238,2.926831007003784,-2.808858633041382,0.3148784637451172,-0.1888579726219177,-0.2562625408172607,2,0.2602769519832936,-0.8147433310086405,-0.1921523298908261,0.4811723784787323,-0.6840383410453796,-0.5635858178138733,0.4631015658378601,-27.41822052001953,-42.7425537109375,9.502227783203125,2
1596230597.409681,52,0,102929.6010752917,0.3026355467703593,-2.229968913418009,0.679745967679146,-1.859810709953308,-6.798178672790527,-0.8626652359962463,2.623459815979004,0.2976181507110596,-0.4147243499755859,2,0.2726770677532951,-0.8147475037777028,-0.2333522309927253,0.4553906600418278,-0.6147971749305725,-0.6285954713821411,0.4763325452804565,-25.61004638671875,-44.10330200195312,7.926727294921875,2
1596230597.443684,53,0,102929.6311732917,0.2013223084571971,-2.445962803104154,0.6920446658103071,-2.418777942657471,-9.986539840698242,3.210062503814697,0.9826297760009766,-0.0521397590637207,0.4881272315979004,2,0.2038893924833696,-0.8683044813329241,-0.2850138574957746,0.351060861369199,-0.4934328198432922,-0.6381127834320068,0.5910471081733704,-22.89994812011719,-45.44565582275391,10.05255126953125,2
1596230597.469799,54,0,102929.6612722917,0.01329272724984544,-2.562885766995182,0.70817020634182,-3.372287511825562,-5.399676322937012,3.260469436645508,-1.075105667114258,-0.1790127754211426,1.108975887298584,2,0.1049067263826099,-0.8982943094076066,-0.3305320368923879,0.2698346480987082,-0.415431797504425,-0.6504450440406799,0.6358761787414551,-24.7567138671875,-43.84172058105469,11.6884765625,2
1596230597.501703,55,0,102929.6913702917,-0.07005625468351799,-2.609120427794736,0.7374830379822634,-0.7945393323898315,-0.907063901424408,-1.223054051399231,-1.915693998336792,0.562553882598877,-0.2108423709869385,2,0.06325881863824134,-0.9026871094039277,-0.3561241393948178,0.2330879797829745,-0.3757550418376923,-0.6724270582199097,0.6376913785934448,-25.36342620849609,-43.32059478759766,11.54238891601562,2
1596230597.529885,56,0,102929.7214692917,0.01502324511916291,-2.652633988359504,0.7766415121345621,0.5084134340286255,1.463188171386719,-2.739825248718262,-0.2146979868412018,0.4807316064834595,-0.2890682220458984,2,0.0983919552203783,-0.8973099960812221,-0.3656822331624812,0.226782852269685,-0.3350286483764648,-0.7008878588676453,0.6296924352645874,-22.63824462890625,-45.29534912109375,11.22952270507812,2
1596230597.564571,57,0,102929.7515672917,0.09436097368613189,-2.668114737950185,0.7943052512263605,-0.03452759981155396,0.8104886412620544,-1.183936476707458,0.6432334780693054,-0.159501850605011,0.03536438941955566,2,0.1328943794017933,-0.8911690771067726,-0.3653868518051574,0.2337720525457829,-0.3195451200008392,-0.7133769392967224,0.6236864924430847,-20.86830139160156,-45.95432281494141,10.93060302734375,2
1596230597.590143,58,0,102929.7816662917,0.1111641421553664,-2.694890307603086,0.8087483200834299,-0.3681950271129608,-1.830635190010071,-0.1402911841869354,1.010197639465332,-0.3008682727813721,-0.06569147109985352,2,0.1368170616122995,-0.8902871088043065,-0.3717654150344994,0.2246344942285731,-0.298250675201416,-0.7234236001968384,0.6226601004600525,-19.20192718505859,-46.60730743408203,10.74005126953125,2
1596230597.622121,59,0,102929.8117642917,0.08361664010050565,-2.759540870134243,0.8235463191688824,-0.8697962164878845,-3.074255466461182,0.7395408153533936,0.6023949384689331,0.1077989935874939,0.2085683345794678,2,0.1135304795940881,-0.8957808492377534,-0.3853387805694374,0.1902678521689253,-0.2533811926841736,-0.7335606217384338,0.6306250095367432,-18.96553802490234,-46.88198089599609,10.88333129882812,2
1596230597.651813,60,0,102929.8418632917,0.03325875908010426,-2.789744351891334,0.8409410915189102,-0.8240706324577332,-1.051650404930115,0.6719872951507568,-0.3782919347286224,0.2231391668319702,0.2302497625350952,2,0.08637668518705027,-0.8974944966095006,-0.3991772895045378,0.1664343373970033,-0.2297885864973068,-0.7452709078788757,0.6259146332740784,-18.72180938720703,-46.66194915771484,11.137939453125,2
1596230597.685391,61,0,102929.8719612917,0.02041749407281961,-2.780207826285859,0.8467852553858637,0.2564358115196228,1.024379253387451,-0.3625123798847198,-0.7593303918838501,0.3210396766662598,-0.08362603187561035,2,0.08298701585119628,-0.8960570591407977,-0.4024731815175321,0.167959881051151,-0.2342031747102737,-0.7491548657417297,0.6196101903915405,-19.3729248046875,-46.82614898681641,10.63821411132812,2
1596230597.7107,62,0,102929.9020602917,0.05229014401656006,-2.769740438780821,0.8382743355891276,0.6978486180305481,0.9069554805755615,-0.7545076012611389,0.038617342710495,0.1506245136260986,-0.1319501399993896,2,0.09867359984111274,-0.8954242767478884,-0.3954075144452263,0.179253719977223,-0.2429836988449097,-0.7434902191162109,0.6230422258377075,-19.04249572753906,-46.76119995117188,10.436279296875,2
1596230597.743028,63,0,102929.9321582917,0.08208583310754472,-2.790467098228872,0.8322071325430291,-0.082681804895401,-0.6146470308303833,-0.113709382712841,0.6009422540664673,-0.1775834560394287,0.2124359607696533,2,0.1074922949508224,-0.8969558163987142,-0.3910960314147804,0.1759539717860504,-0.2315662503242493,-0.7394191026687622,0.6321686506271362,-18.35521697998047,-46.774658203125,10.89144897460938,2
1596230597.770803,64,0,102929.9622572917,0.05103246798468481,-2.794056064291978,0.8391919012018958,-0.5816851854324341,-0.7349007129669189,0.876196026802063,0.02562409639358521,-0.1974626779556274,0.2037336826324463,2,0.0933624414743171,-0.8974104632969608,-0.3970971027180989,0.1680831747947502,-0.2275312840938568,-0.7441034913063049,0.6281241774559021,-18.32840728759766,-46.75540924072266,11.21823120117188,2
1596230597.802288,65,0,102929.9923552917,0.02006377518417722,-2.783291373931113,0.8467157529609258,-0.2097561359405518,0.04305867105722427,-0.02791804634034634,-0.515415370464325,0.2088714241981506,-0.1476521492004395,2,0.08220236546133902,-0.8963435844130234,-0.4025989173549528,0.1665091759151337,-0.2323096990585327,-0.7491087913513184,0.6203780770301819,-18.99785614013672,-46.84168243408203,10.77352905273438,2
1596230597.831073,66,0,102930.0224542917,0.03694905894675925,-2.779671782926052,0.8503225353100263,0.1624713242053986,0.9564032554626465,-0.5440037250518799,-0.2326636016368866,0.0791165828704834,-0.2023963928222656,2,0.09077500708680802,-0.8945731508497421,-0.4026345366897884,0.1714191090225233,-0.2335955649614334,-0.7514932155609131,0.6170024275779724,-19.03849792480469,-46.68444061279297,10.33071899414062,2
1596230597.864929,67,0,102930.0525522917,0.05527477706650444,-2.766674322821348,0.8489497901505392,0.2161079794168472,0.6776968240737915,-0.2221729010343552,0.2787118554115295,-0.2045168280601501,-0.1891456842422485,2,0.1014632924056245,-0.8928280580690623,-0.3997797310311354,0.1809410451022427,-0.2419725507497787,-0.7505868673324585,0.614873468875885,-18.81411743164062,-47.03615570068359,10.0086669921875,2
1596230597.891156,68,0,102930.0826512917,0.05404274007658941,-2.763351222088875,0.8500620914192216,-0.319748193025589,-0.3346825838088989,0.1912823468446732,0.2805604040622711,-0.1582554578781128,-0.02079164981842041,2,0.1016667187225642,-0.8923612880827468,-0.4002215961100815,0.1821484228120563,-0.2437059730291367,-0.7513213753700256,0.6132895946502686,-18.44941711425781,-47.12080383300781,10.19265747070312,2
1596230597.923425,69,0,102930.1127492917,0.03564853370352278,-2.76144661216535,0.855429873961159,-0.1623630076646805,-0.2361551374197006,0.2568604052066803,-0.1006205976009369,0.06952178478240967,-0.1019184589385986,2,0.09428023837973482,-0.8919901624918323,-0.4041936639998034,0.1791435521307931,-0.2433736175298691,-0.7548529505729675,0.6090704202651978,-18.71370697021484,-46.97918701171875,9.615997314453125,2
1596230597.951398,70,0,102930.1428482917,0.0309531498990726,-2.754868289136635,0.856633555099767,-0.01491639576852322,0.4515354931354523,-0.1168256253004074,-0.307300329208374,0.1213470697402954,-0.01906073093414307,2,0.09361760494601734,-0.8913712884966838,-0.4048457840655321,0.1810880635846326,-0.2470320165157318,-0.7556418776512146,0.6066140532493591,-18.82597351074219,-47.08712005615234,9.605194091796875,2
1596230597.984867,71,0,102930.1729462917,0.04428439918188243,-2.744105646345746,0.8556584056721811,0.3026873469352722,0.909964919090271,-0.3774170577526093,-0.01807436347007751,-0.1124398112297058,-0.1349997520446777,2,0.1016444790580407,-0.8899260009896244,-0.4026524605574788,0.1886035664213659,-0.2538316249847412,-0.7550027966499329,0.6045997738838196,-18.70120239257812,-47.12934112548828,9.5048828125,2
1596230598.011506,72,0,102930.2030452917,0.06213438378417659,-2.734298268247099,0.8519078664052119,0.1917472183704376,0.5398240089416504,-0.1598623394966125,0.4164271056652069,-0.1882106065750122,-0.1601334810256958,2,0.1112262938350947,-0.8888010348295267,-0.3987352026787447,0.1966516805501295,-0.2608687579631805,-0.7525382041931152,0.604677140712738,-18.61019134521484,-47.21537017822266,9.561981201171875,2
1596230598.04498,73,0,102930.2331432917,0.0517910349277416,-2.717917540438433,0.8481372380149755,-0.05296028777956963,0.1555734574794769,0.5630850195884705,0.3190000951290131,-0.1332685947418213,-0.1301239728927612,2,0.1095573633743238,-0.8885098945995132,-0.3971773125448803,0.2019844460162871,-0.2719029486179352,-0.7500497102737427,0.6029052734375,-18.93911743164062,-46.95307159423828,9.38043212890625,2
1596230598.071921,74,0,102930.2632422917,0.03109556416440057,-2.693805016320085,0.8406770811947228,0.1796325594186783,0.5167321562767029,0.3372731506824493,-0.08664238452911377,-0.03344810009002686,-0.03266286849975586,2,0.1044314070301072,-0.888647736206654,-0.3946847107106398,0.2088621021252431,-0.288774698972702,-0.745094895362854,0.6012014150619507,-19.40505218505859,-46.82480621337891,9.2510986328125,2
1596230598.101828,75,0,102930.2933402917,0.0320488895476527,-2.669843669934795,0.8317306101011863,0.3223871290683746,1.274279356002808,-0.07661048322916031,-0.234517902135849,-0.06683981418609619,0.1647429466247559,2,0.1086478383303136,-0.8878106060530925,-0.3893195856034479,0.2200416433828091,-0.3061131536960602,-0.7390981912612915,0.6000240445137024,-20.03672790527344,-46.54210662841797,9.330352783203125,2
1596230598.131935,76,0,102930.3234392917,0.0467323712204188,-2.63078495644926,0.8235728789716481,0.5164135694503784,1.805710911750793,-0.304068922996521,-0.08388173580169678,0.003447175025939941,-0.0267796516418457,2,0.1218057466176986,-0.8840758126665377,-0.3817486309886197,0.2405025662548759,-0.3322466611862183,-0.733578622341156,0.5928533673286438,-20.168212890625,-46.54254913330078,9.171173095703125,2
1596230598.16753,77,0,102930.3535372917,0.0708259834870584,-2.592647385065084,0.8154377058879471,0.4303126037120819,1.995197296142578,-0.2179124653339386,0.2099214792251587,-0.03488123416900635,0.07574832439422607,2,0.1386907775828262,-0.8793053238665202,-0.3726248844416706,0.2621791058894031,-0.3577117025852203,-0.7280257344245911,0.5848259925842285,-20.13534545898438,-46.56484222412109,8.62237548828125,2
1596230598.192129,78,0,102930.3836362917,0.08447307352042224,-2.543568267866079,0.8014031790508157,0.7951211333274841,1.865994334220886,0.06413708627223969,0.1068180799484253,-0.06054508686065674,-0.09833383560180664,2,0.1519554661163371,-0.874293989108091,-0.3609710557709754,0.2867397345245781,-0.3916865885257721,-0.7183330059051514,0.5749608874320984,-20.29930877685547,-46.39106750488281,8.32989501953125,2
1596230598.222731,79,0,102930.4137342917,0.1047337573202887,-2.514263117349445,0.783236654783164,0.6316127777099609,1.092790603637695,-0.1354387253522873,-0.002597451210021973,0.1331589221954346,0.09090840816497803,2,0.1636257991128318,-0.8718261120676302,-0.3476367590391287,0.3038002123876601,-0.4159572422504425,-0.7055767178535461,0.5737083554267883,-21.00770568847656,-46.36966705322266,8.48388671875,2
1596230598.252321,80,0,102930.4438332917,0.1205001030473015,-2.491524161045667,0.771678035764475,0.4778861999511719,1.304539084434509,0.038752231746912,-0.1805695593357086,0.1494972705841064,0.1794912815093994,2,0.1728276043509367,-0.8691426587576057,-0.3381693718234993,0.3168014863379277,-0.4338013529777527,-0.6973389387130737,0.5705567002296448,-20.99297332763672,-46.22735595703125,8.688507080078125,2
1596230598.285102,81,0,102930.4739312917,0.1315151834895948,-2.451528624820631,0.7579537184044122,0.6349812746047974,1.888939023017883,-0.006202117539942265,-0.2311466336250305,0.2409306168556213,0.05000162124633789,2,0.1823131598686507,-0.8641781045203207,-0.3267652907825861,0.3364265258563869,-0.4623176455497742,-0.6874367594718933,0.5600837469100952,-21.46165466308594,-46.21851348876953,8.593170166015625,2
1596230598.312395,82,0,102930.5040302917,0.1556031327485192,-2.40028317171329,0.7430226345636787,0.8521416783332825,2.564459562301636,-0.1925310790538788,-0.1572889685630798,0.1649507880210876,0.0209498405456543,2,0.1986016407220129,-0.855655468183552,-0.3111149210301641,0.3627930293441837,-0.4972757995128632,-0.6765169501304626,0.5431777834892273,-21.76929473876953,-46.04027557373047,8.2166748046875,2
1596230598.347822,83,0,102930.5341282917,0.1886391272346108,-2.341646013351023,0.7291907977405812,0.9709078669548035,2.825596809387207,-0.315509706735611,-0.1262612342834473,0.1228066086769104,0.09877181053161621,2,0.2192738042465214,-0.8436262732472772,-0.292705362536516,0.3931125110991931,-0.5349148511886597,-0.6662664413452148,0.5195725560188293,-22.13166046142578,-46.07279968261719,8.0538330078125,2
1596230598.372648,84,0,102930.5642272917,0.2284032828939024,-2.275590398367134,0.7112037264694909,1.376238107681274,3.334900617599487,-0.1096774190664291,0.01578497886657715,0.05046206712722778,0.04759836196899414,2,0.2420985481984402,-0.8287319710133905,-0.269141889098246,0.4267955836445976,-0.5770805478096008,-0.6527461409568787,0.4908167719841003,-22.56755828857422,-45.78977203369141,7.705352783203125,2
1596230598.407249,85,0,102930.5943252917,0.2804339076110298,-2.197807551018862,0.6826495557929605,1.827031254768372,4.065275192260742,-0.129616990685463,-0.1224806904792786,0.1827629208564758,0.1277701854705811,2,0.2679709260188989,-0.8098231865244656,-0.235360906345672,0.4658147101812764,-0.6283153295516968,-0.6308510303497314,0.4552440345287323,-23.05890655517578,-45.69593811035156,7.492279052734375,2
1596230598.433155,86,0,102930.6244242917,0.3508079850284077,-2.104116597964843,0.6611189784439375,2.047833442687988,5.1825852394104,-0.7349966764450073,-0.3338773250579834,0.2017537355422974,0.346489429473877,2,0.3017930044971872,-0.7807436709859685,-0.1957149005466939,0.510936482600149,-0.6796900629997253,-0.6140004396438599,0.4012793898582458,-23.55088043212891,-45.51683044433594,7.10882568359375,2
1596230598.466207,87,0,102930.6545222917,0.4447140184137893,-1.986679845250569,0.6516254111609328,2.73655104637146,6.417440891265869,-0.803317666053772,-0.0791400671005249,-0.06833648681640625,0.1629352569580078,2,0.3454781090984378,-0.7356998633828842,-0.1475244496583409,0.5635843835601234,-0.7273249626159668,-0.6064795851707458,0.3212188184261322,-23.65157318115234,-45.60503387451172,6.80963134765625,2
1596230598.493142,88,0,102930.6846202917,0.5647128515911566,-1.858481618989236,0.638794976243985,3.403322458267212,6.792051792144775,-0.7118717432022095,-0.1496180891990662,0.04679113626480103,0.1927194595336914,2,0.39239780732186,-0.6781715885326728,-0.08329526805334503,0.6157673234176559,-0.7698220610618591,-0.5962284803390503,0.2277854830026627,-23.99529266357422,-45.50725555419922,6.59454345703125,2
1596230598.528594,89,0,102930.7147192917,0.7020359787533436,-1.7318864945041,0.6436800152720988,3.756643533706665,7.189851760864258,-1.261085510253906,-0.285685658454895,0.2581108808517456,0.3826472759246826,2,0.4409166668595554,-0.6080638511716185,-0.01489449903388029,0.6600221157865601,-0.789536714553833,-0.6001431345939636,0.1282983124256134,-24.03844451904297,-45.44611358642578,6.8148193359375,2
1596230598.553367,90,0,102930.7448172917,0.8599038527885799,-1.606089511619355,0.6756245663959553,4.233088493347168,7.46711540222168,-1.570278644561768,-0.2579872608184814,0.1436067819595337,0.4773879051208496,2,0.4921772471398652,-0.5210840937505098,0.056384476062252,0.6950208581750783,-0.7798309326171875,-0.6253848075866699,0.02753415144979954,-23.51683807373047,-45.63792419433594,7.570098876953125,2
1596230598.588114,91,0,102930.7749162917,1.028800446126069,-1.499661653515993,0.7274842460451044,4.481547832489014,6.629644870758057,-1.76434850692749,-0.06396317481994629,0.2916209101676941,0.4757315516471863,2,0.5400386934000323,-0.4264002156077946,0.1254118722558827,0.7147118895285403,-0.744961142539978,-0.6649928689002991,-0.05308213084936142,-23.31580352783203,-45.77738952636719,8.17584228515625,2
1596230598.613494,92,0,102930.8050142917,1.211952902652289,-1.442010553099195,0.8012539353234516,4.701679229736328,5.752234935760498,-2.111048221588135,-0.005677759647369385,0.5503273606300354,0.7272906303405762,2,0.5870031774406118,-0.3327852330530954,0.1823363171565188,0.7151467417207451,-0.6900445222854614,-0.7182291746139526,-0.08936251699924469,-22.32209014892578,-45.60078430175781,10.80453491210938,2
1596230598.644611,93,0,102930.8351132917,1.407070199601346,-1.396454502711484,0.8878348810808904,4.682681560516357,7.17609977722168,-2.455884695053101,0.1402455568313599,0.5489444136619568,1.185080885887146,2,0.6264323110311281,-0.2298865662742832,0.2369595417380166,0.7061056642228818,-0.6215266585350037,-0.7757071852684021,-0.1094694510102272,-21.92719268798828,-45.44399261474609,12.735595703125,2
1596230598.673741,94,0,102930.8652112917,1.601375034657482,-1.309131459736155,1.001652292967653,4.427444934844971,9.092194557189941,-3.134485006332397,0.1889832615852356,0.6464791893959045,1.036811590194702,2,0.6485494697237468,-0.09837857732277056,0.2960099780477898,0.6943222502942801,-0.5205671191215515,-0.8423625826835632,-0.1394104808568954,-21.40183258056641,-45.05173492431641,15.150634765625,2
1596230598.704035,95,0,102930.8953102917,1.825133173018952,-1.220444098195867,1.129891726322239,5.016356945037842,9.200191497802734,-2.730629444122314,-0.07423293590545654,0.4337256550788879,0.6117836833000183,2,0.6512760954032615,0.0510062829125692,0.3598977758335283,0.6661167964151087,-0.4008333384990692,-0.9043660163879395,-0.146475613117218,-21.60591125488281,-44.6651611328125,15.6536865234375,2
1596230598.733956,96,0,102930.9254082917,2.087819580099436,-1.228180959232513,1.254300701812007,3.445840835571289,6.115828514099121,-2.844621419906616,0.2695070803165436,0.01086807250976562,-0.1065613627433777,2,0.6444623552107877,0.1799659362391082,0.4019826602730142,0.6250524707046518,-0.2931490838527679,-0.9503319263458252,-0.1045610681176186,-22.30078887939453,-43.75815582275391,16.96273803710938,2
1596230598.765895,97,0,102930.9555072917,2.259387018072549,-1.238439802503509,1.338733391504447,1.589226126670837,3.719327926635742,-1.050822973251343,0.9483233690261841,-0.2886198759078979,-0.2449473142623901,2,0.6273156619946466,0.2625947699754474,0.4237305841679965,0.5983073558970311,-0.2174008935689926,-0.9731940031051636,-0.07503809034824371,-22.00556182861328,-43.92958068847656,17.45272827148438,2
1596230598.794131,98,0,102930.9856052917,2.474301363394435,-1.430683364048337,1.360957753044606,1.342026710510254,-1.215545654296875,-0.1168753504753113,0.7514851093292236,-0.7419501543045044,0.1887171268463135,2,0.6372177873961331,0.2817946405110313,0.4192429395119424,0.582048822788607,-0.2062616348266602,-0.9780645370483398,-0.02909054420888424,-22.08022308349609,-43.19419860839844,18.32510375976562,2
1596230598.826911,99,0,102931.0157042917,2.645457006239509,-1.608922925044702,1.374182746305015,1.223091959953308,1.023413181304932,-0.6099098920822144,0.1976928412914276,-0.3751697540283203,0.9632196426391602,2,0.6479359041209694,0.28965871946525,0.4075257192769609,0.5746301246085915,-0.1952078342437744,-0.9807337522506714,0.007446219213306904,-21.72863006591797,-43.06304168701172,19.80191040039062,2
1596230598.854354,100,0,102931.0458022917,2.819262266077498,-1.703580204953057,1.389424728225534,0.7338057160377502,3.15980052947998,-0.5061578154563904,-0.5397880077362061,0.03590548038482666,0.604168176651001,2,0.6382369042546796,0.3234103358962575,0.4221358989680202,0.5566514410397368,-0.1787917613983154,-0.9835972189903259,0.02388118207454681,-21.44268798828125,-42.56723022460938,20.85308837890625,2
1596230598.886727,101,0,102931.0759012917,2.961216992866684,-1.791629063786256,1.404539314000026,0.5308817625045776,0.2252086400985718,-0.9735773801803589,0.04692104458808899,0.2834737300872803,0.1028457880020142,2,0.629915664617677,0.3483263662031622,0.4296632245251131,0.545219850855444,-0.1614742875099182,-0.9862111210823059,0.03625000268220901,-22.16063690185547,-42.63847351074219,20.46939086914062,2
1596230598.914585,102,0,102931.1059992917,3.070684851532766,-1.913769787399956,1.434808903496902,-0.002754366956651211,-1.028746724128723,-0.7023192644119263,1.030145645141602,-0.08831095695495605,0.4636013507843018,2,0.6289612379541045,0.3566554515538038,0.4147559662812771,0.552433087874956,-0.1276743113994598,-0.9907679557800293,0.04559069871902466,-21.13358306884766,-42.74247741699219,20.75668334960938,2
1596230598.947288,103,0,102931.1360982917,2.954240905534758,-1.837509898033942,1.430804624986889,-0.7273750305175781,-1.412951350212097,1.059223651885986,-0.1591978371143341,-0.3101366758346558,0.2050800323486328,2,0.6345735389415955,0.3401537074296406,0.4072629650546256,0.5619152828207505,-0.1346014738082886,-0.9902171492576599,0.03677624091506004,-20.04837036132812,-43.24266052246094,21.07229614257812,2
1596230598.974738,104,0,102931.1661962917,2.797798216247129,-1.719578446678631,1.414520050328195,-0.5223695039749146,-0.7652295231819153,-0.1863367557525635,-0.5426885485649109,0.3921843767166138,0.1386958360671997,2,0.6400079510915435,0.3192578095116445,0.4045456104216524,0.5699187036329454,-0.153922826051712,-0.9878137111663818,0.02307145297527313,-20.30897521972656,-43.09532928466797,20.88937377929688,2
1596230599.006199,105,0,102931.1962942917,2.781651664752555,-1.705501137308112,1.446675385633266,0.05963973328471184,0.2773228585720062,-1.372136950492859,0.05577030777931213,0.2150067090988159,-0.07092714309692383,2,0.6333503284502936,0.327384509314621,0.3959826295188981,0.5786921468511877,-0.1226817667484283,-0.9923068881034851,0.0166265107691288,-18.715576171875,-43.57461547851562,20.77389526367188,2
1596230599.034997,106,0,102931.2263932917,2.776176726781221,-1.694407433241836,1.465988663070951,-0.3856011629104614,-0.1372840106487274,0.2360153943300247,0.3421772122383118,-0.4944882392883301,-0.1083625555038452,2,0.6281778764686394,0.3344279804298897,0.3927441143417626,0.5824970028538001,-0.1038197353482246,-0.994512677192688,0.01289903745055199,-18.11770629882812,-43.92271423339844,20.6951904296875,2
1596230599.066122,107,0,102931.2564912917,2.663494277980876,-1.597073330004623,1.454380335219736,-0.2855526804924011,-0.6415044069290161,0.1709892302751541,0.1880601346492767,0.1795825958251953,0.06507086753845215,2,0.6297477999211263,0.3239500482862226,0.3936789007730391,0.5860812140935362,-0.1161147654056549,-0.9932312965393066,0.003051850479096174,-18.25898742675781,-43.92688751220703,20.225830078125,2
1596230599.095115,108,0,102931.2865902917,2.592769748998759,-1.53673412862398,1.458699048911039,-0.2561527490615845,0.09826832264661789,-0.116289809346199,0.1505874991416931,-0.2157310247421265,0.09289956092834473,2,0.628625278600988,0.3208200264780795,0.3905730461743137,0.5910646547272991,-0.111797422170639,-0.9937236905097961,-0.003809539368376136,-18.24673461914062,-44.22285461425781,20.23306274414062,2
1596230599.125062,109,0,102931.3166882917,2.487389067862288,-1.428813650832487,1.447583645934749,-0.5532292127609253,-0.1318549662828445,0.6316937804222107,-0.02071425318717957,0.05168414115905762,0.00508958101272583,2,0.6256362027576494,0.3160436952840818,0.3966648044584383,0.5927503007388684,-0.1216657310724258,-0.9924189448356628,-0.01739144884049892,-18.49704742431641,-44.51094818115234,19.53509521484375,2
1596230599.155364,110,0,102931.3467872917,2.441992012835055,-1.380217488498519,1.435039019933867,-0.1341756880283356,0.3875702619552612,0.06211206316947937,0.2390166223049164,0.1984187364578247,0.1668294668197632,2,0.6243833029045242,0.3119724427303117,0.4023933157679025,0.5923667930761467,-0.1328911036252975,-0.9907991290092468,-0.02563737146556377,-18.75649261474609,-44.33778381347656,19.22427368164062,2
1596230599.185955,111,0,102931.3768852917,2.392495616179116,-1.328235136622913,1.426217531912338,-0.4560622274875641,-0.3252474367618561,0.6801642179489136,0.6050739288330078,-0.431218147277832,0.02646088600158691,2,0.6223254975587592,0.3088819076596827,0.4067742376163955,0.5931592686929938,-0.1398596316576004,-0.9895666837692261,-0.03460588306188583,-19.14747619628906,-44.20924377441406,18.73049926757812,2
1596230599.2188,112,0,102931.4069842917,2.332876826582182,-1.288055488558804,1.38645613506215,-0.5925623178482056,-0.6882721781730652,1.493063807487488,0.2953093349933624,0.09386098384857178,-0.1319059133529663,2,0.6256402467604134,0.2881060471316377,0.4145500737115939,0.5947416616889016,-0.176021084189415,-0.9830573797225952,-0.05113837495446205,-19.87380981445312,-44.02793121337891,18.32095336914062,2
1596230599.245444,113,0,102931.4370822917,2.316750537728709,-1.294867100173902,1.339306434537626,-0.6410683393478394,-1.190794467926025,1.309148907661438,-0.5725125074386597,0.324795126914978,-0.08232766389846802,2,0.6316865209428469,0.2640439897911451,0.4228779198031296,0.5936559364316989,-0.2207500040531158,-0.9733256697654724,-0.0625058189034462,-21.72520446777344,-43.84368133544922,17.91915893554688,2
1596230599.275765,114,0,102931.4671812917,2.265685905148336,-1.278244656196036,1.316598077226255,-0.5874784588813782,-0.3560725748538971,-0.1324858665466309,-0.8114198446273804,-0.0139153003692627,0.2572634220123291,2,0.6355481281808707,0.2445753225266278,0.4202222261814259,0.599728970725566,-0.2407850921154022,-0.9678652286529541,-0.07252297550439835,-22.25927734375,-43.36795043945312,17.83688354492188,2
1596230599.305858,115,0,102931.4972792917,2.197392446733439,-1.189154908434293,1.319298393829343,-0.2702899575233459,1.304137706756592,-0.1128580868244171,-0.1337805688381195,0.1139511466026306,0.009985923767089844,2,0.625088894391383,0.2508412909409475,0.4268810617365337,0.603419732648358,-0.2309520542621613,-0.9685407280921936,-0.0926850438117981,-22.25311279296875,-43.97678375244141,16.88876342773438,2
1596230599.335775,116,0,102931.5273782917,2.169002590537362,-1.138768589897594,1.31526124173592,-0.2936770915985107,0.1917317658662796,-0.07705547660589218,0.1234082281589508,-0.08116698265075684,-0.1772151589393616,2,0.6178110198409277,0.2557184353600796,0.4352961574084007,0.6028556111116672,-0.2295389324426651,-0.9675281643867493,-0.1058352515101433,-22.61144256591797,-44.226806640625,16.03836059570312,2
1596230599.369316,117,0,102931.5574762917,2.117189337120334,-1.089670992978993,1.31177344902179,-0.7206963300704956,-0.3262456059455872,0.2022150456905365,0.1834093332290649,-0.1658068895339966,0.1004889011383057,2,0.6136437815289844,0.2533263204115032,0.4358747281197364,0.6076845038246288,-0.2270586788654327,-0.9666407108306885,-0.1185341700911522,-22.59439849853516,-44.16065216064453,15.56878662109375,2
1596230599.39605,118,0,102931.5875750417,2.074670136677569,-1.060038471608924,1.289550780305017,-0.5463402271270752,-0.1529638022184372,0.4670758843421936,-0.1187876164913177,0.2075305581092834,-0.07950472831726074,2,0.6116059243134628,0.2410371425673769,0.4392522068815669,0.6122882854039227,-0.2421300709247589,-0.9607104659080505,-0.1356785744428635,-23.18667602539062,-44.45611572265625,14.66116333007812,2
1596230599.426108,119,0,102931.6176740417,2.044878466125597,-1.028289766026586,1.280842087165598,-0.2721589505672455,0.165992334485054,-0.2056463360786438,-0.2416946589946747,0.1435198783874512,-0.1526607275009155,2,0.6077368480171457,0.2384340767405904,0.4426260183005138,0.6147255265147722,-0.2448572516441345,-0.9582569599151611,-0.1476102322340012,-23.24465179443359,-44.15693664550781,14.23980712890625,2
1596230599.456242,120,0,102931.6477720417,2.010246691195903,-0.9876674343080555,1.279598474479797,-0.3606057465076447,0.3684774041175842,0.1098545119166374,0.103022962808609,-0.1211079955101013,0.01262348890304565,2,0.6027892117546619,0.2400020831416323,0.4446542583223319,0.6175166613170373,-0.239655002951622,-0.9579006433486938,-0.1580883264541626,-23.07388305664062,-44.4134521484375,13.74322509765625,2
1596230599.486216,121,0,102931.6778710417,1.999765854412907,-0.9675786746080958,1.263218983069653,-0.3196448087692261,0.1103143617510796,0.5191616415977478,0.1435511112213135,0.2353082895278931,-0.1980774998664856,2,0.5983251004137101,0.2369229794940422,0.4527353470772771,0.6171753545198804,-0.2493197917938232,-0.953069806098938,-0.1717491447925568,-23.41387176513672,-44.43069458007812,13.0970458984375,2
1596230599.518706,122,0,102931.7079690417,2.00274523120725,-0.9719000493003069,1.252112261641491,-0.07806884497404099,-0.022940993309021,0.1294841170310974,-0.03328400850296021,-0.08839559555053711,-0.1014588475227356,2,0.5980941758954659,0.2323144531362239,0.4559245158386918,0.6168032274616762,-0.2587869763374329,-0.9496485590934753,-0.1766266971826553,-24.20406341552734,-44.40876770019531,12.57525634765625,2
1596230599.546447,123,0,102931.7380680417,1.998626629208934,-0.9621048008321077,1.241878534779179,-0.4469946324825287,0.395039290189743,0.4560717642307281,0.04992219805717468,-0.1468108892440796,0.2407402992248535,2,0.5955083008539286,0.2302597725016874,0.4608468648261269,0.6164175057372847,-0.2650039494037628,-0.9463924765586853,-0.184700608253479,-24.38229370117188,-44.41267395019531,12.55889892578125,2
1596230599.576695,124,0,102931.7681660417,1.996823237374461,-0.9507561366198319,1.223863403694099,-0.1179656386375427,-0.04600786045193672,0.368840754032135,0.07689282298088074,0.2862981557846069,-0.1371424198150635,2,0.5915582550877131,0.2264348808061307,0.4693779351878967,0.6151996924651013,-0.2767234444618225,-0.9404199719429016,-0.1975721567869186,-25.44936370849609,-44.04695129394531,11.767333984375,2
1596230599.606751,125,0,102931.7982650417,2.0093308326638,-0.9726968634908054,1.220068789702339,0.103264681994915,-0.4305418431758881,0.08077692985534668,-0.109641432762146,-0.1057331562042236,-0.102567195892334,2,0.5949788365859178,0.2219672711302282,0.4679154005543839,0.6146430253056423,-0.2839382588863373,-0.9391229748725891,-0.1934614330530167,-25.70587921142578,-44.09860229492188,11.696533203125,2
1596230599.636865,126,0,102931.8283630417,2.013798631597379,-0.9777033846456783,1.212494148211255,-0.2524969875812531,0.3645430505275726,0.4418974220752716,-0.06500321626663208,-0.0377504825592041,0.02962231636047363,2,0.595046498458484,0.2188967245390501,0.4701924227203156,0.6139406018196316,-0.2907935380935669,-0.9364935755729675,-0.1960077732801437,-25.71211242675781,-44.18228149414062,11.97006225585938,2
1596230599.668856,127,0,102931.8584620417,2.032823428267732,-0.9818682324805348,1.200718345866598,0.1871011406183243,0.4613884687423706,0.2493100613355637,-0.1696188449859619,0.2216392755508423,-0.09547746181488037,2,0.5930154750387244,0.2188128788505209,0.4784835196851068,0.6095139682209608,-0.3007572591304779,-0.9322991371154785,-0.2009071409702301,-26.04105377197266,-43.88533782958984,11.58343505859375,2
1596230599.697046,128,0,102931.8885600417,2.037606873511356,-0.979728598095351,1.204250506743821,-0.02100495994091034,-0.03105252794921398,-0.2342335432767868,-0.08841729164123535,-0.1262841820716858,0.000603020191192627,2,0.5922503025888382,0.2222219973074997,0.4794636097957609,0.6082530821650234,-0.2975904941558838,-0.9335708618164062,-0.1997139304876328,-26.59516143798828,-43.67723083496094,11.3431396484375,2
1596230599.727387,129,0,102931.9186590417,2.03041158924023,-0.9715780930222654,1.203152090427205,-0.07902231812477112,0.1989281475543976,0.2549967765808105,0.2075489163398743,0.006525576114654541,0.01491695642471313,2,0.5910082330123421,0.2221572306097871,0.4800300657359418,0.6090374871552715,-0.2967992722988129,-0.9331766366958618,-0.2027108669281006,-26.50807952880859,-43.87753295898438,11.38070678710938,2
1596230599.757216,130,0,102931.9487570417,2.048807784520256,-0.9848755530508881,1.196457964524716,0.1128424555063248,-0.03306421637535095,0.2225588709115982,0.00994226336479187,0.100180447101593,0.03211104869842529,2,0.5916538452001625,0.2210148532046605,0.4837867139737217,0.6058455164460355,-0.3046668171882629,-0.930749773979187,-0.202196329832077,-26.92720794677734,-43.67915344238281,11.26486206054688,2
1596230599.787246,131,0,102931.9788550417,2.051961724799252,-0.9859094840935482,1.194465044400007,-0.09772584587335587,0.1666271984577179,0.008043857291340828,-0.05566158890724182,-0.09755110740661621,0.0347367525100708,2,0.5914059800510607,0.2208766248786409,0.4850603090950404,0.6051191918778644,-0.3064217567443848,-0.930019199848175,-0.2029049694538116,-27.18953704833984,-43.41778564453125,11.27047729492188,2
1596230599.818806,132,0,102932.0089540417,2.053721879933062,-0.9813195947265344,1.187231309006417,-0.05119451135396957,0.2646041810512543,0.3639605343341827,0.006760150194168091,0.05205833911895752,-0.03221344947814941,2,0.5895465209328928,0.2200296429749756,0.4892092597213591,0.603900876481784,-0.3110710382461548,-0.9273363947868347,-0.208043709397316,-27.37278747558594,-43.07389831542969,10.92990112304688,2
1596230599.847368,133,0,102932.0390520417,2.066298393417378,-0.986499887724595,1.181718855221701,0.04311297088861465,0.01290595158934593,0.1076891496777534,-0.09307411313056946,0.04909825325012207,-0.05376040935516357,2,0.5890204112756992,0.2200723119021211,0.4931906111322753,0.6011542140939995,-0.316403865814209,-0.9252594113349915,-0.2092462629079819,-27.68423461914062,-42.87136840820312,10.78903198242188,2
1596230599.877668,134,0,102932.0691510417,2.073015837129731,-0.9928865378065116,1.180448644423718,0.08395382016897202,-0.02884083241224289,0.01216228306293488,-0.1589352786540985,0.004740357398986816,-0.07643359899520874,2,0.5897650564835579,0.2196490446715878,0.4937212825012595,0.6001423747426415,-0.3187177181243896,-0.9247767925262451,-0.2078629434108734,-28.04335021972656,-43.03268432617188,11.17996215820312,2
1596230599.907606,135,0,102932.0992490417,2.074663234749409,-0.9975732997001431,1.184905595814074,0.1256330758333206,-0.126314178109169,-0.1259334832429886,0.004718780517578125,0.03560984134674072,0.003567814826965332,2,0.5910549266006682,0.2204298942549924,0.4914430345842841,0.6004569445755807,-0.3162223398685455,-0.9264635443687439,-0.2041294723749161,-27.86093902587891,-42.88909912109375,11.03399658203125,2
1596230599.93789,136,0,102932.1293480417,2.07737188865854,-1.000762215608744,1.185169660107155,-0.04822681099176407,0.06255906075239182,0.08997085690498352,0.03376314043998718,-0.01613879203796387,0.0918118953704834,2,0.5915582509283536,0.2203743034174629,0.4912308371011562,0.6001552612150056,-0.3166657090187073,-0.9265629053115845,-0.2029879987239838,-27.95512390136719,-43.02438354492188,11.1844482421875,2
1596230599.968938,137,0,102932.1594460417,2.075321590721321,-0.9946572275025878,1.181284923093293,-0.09543882310390472,0.2137162536382675,0.01710234582424164,-0.03049704432487488,0.0171627402305603,0.03914403915405273,2,0.5900084316776493,0.2201172393047896,0.4936303363805626,0.5998063555865385,-0.3184366822242737,-0.9250947237014771,-0.2068769037723541,-28.05519104003906,-43.06239318847656,11.05917358398438,2
1596230599.99809,138,0,102932.1895450417,2.07059817446484,-0.9832615656599094,1.178811125898889,-0.0674668475985527,0.2552343904972076,0.09034779667854309,0.07317870855331421,0.007586658000946045,-0.009220361709594727,2,0.5875295846630461,0.2211988511927661,0.496338454345316,0.5996068232237856,-0.3179623782634735,-0.9241524934768677,-0.2117601037025452,-27.99720001220703,-43.09173583984375,10.93582153320312,2
1596230600.027978,139,0,102932.2196430417,2.07745162785853,-0.9808421181560315,1.17562812057764,0.05513749271631241,0.3066976070404053,0.1420513540506363,0.03451576828956604,0.03816390037536621,-0.0004509687423706055,2,0.585931066775098,0.2227165714902801,0.5000877285260863,0.5974902298205493,-0.3198919296264648,-0.9229318499565125,-0.2141642272472382,-28.37970733642578,-43.01229095458984,10.65997314453125,2
1596230600.058174,140,0,102932.2497410417,2.083950038498834,-0.9795546734831144,1.173749185711039,-0.02061604708433151,0.1546950936317444,0.0551421158015728,-0.06963631510734558,-0.008728623390197754,-0.02282750606536865,2,0.5847443088733012,0.2242832379446031,0.5029854338951338,0.5956316805004269,-0.3210553228855133,-0.9222068786621094,-0.2155422419309616,-28.48966217041016,-42.70191955566406,10.45831298828125,2
1596230600.088263,141,0,102932.2798400417,2.085640341183215,-0.9816757608847109,1.173902063470564,0.005908605176955462,-0.1030681952834129,-0.01057976856827736,0.0107702910900116,0.01777493953704834,-0.0601123571395874,2,0.5850992570742244,0.2242046512566196,0.5028209188211725,0.5954514510782395,-0.3213943243026733,-0.9222660064697266,-0.2147822678089142,-28.50348663330078,-42.62076568603516,10.34994506835938,2
1596230600.118792,142,0,102932.3099380417,2.084692109191073,-0.9874929155651475,1.172987978267602,0.02140220254659653,-0.2774576842784882,0.0369645319879055,-0.05032011866569519,0.09082669019699097,-0.02229523658752441,2,0.5865992692546347,0.2218437877294066,0.5011176599606764,0.596295126520113,-0.3233417570590973,-0.9219122529029846,-0.2133732587099075,-28.76036071777344,-42.64977264404297,10.51092529296875,2
1596230600.148379,143,0,102932.3400370417,2.08660636157185,-0.9978084433837998,1.173338994534406,-0.07194643467664719,-0.2111386805772781,-0.05953630059957504,-0.0454220175743103,-0.02637535333633423,0.04227989912033081,2,0.5889909065088947,0.2194634961981868,0.4985480544703759,0.5969718471929967,-0.3252534866333008,-0.9220481514930725,-0.2098509669303894,-28.65398406982422,-42.66402435302734,10.96554565429688,2
