loggingTime,loggingSample,identifierForVendor,motionTimestamp_sinceReboot,motionYaw,motionRoll,motionPitch,motionRotationRateX,motionRotationRateY,motionRotationRateZ,motionUserAccelerationX,motionUserAccelerationY,motionUserAccelerationZ,motionAttitudeReferenceFrame,motionQuaternionX,motionQuaternionY,motionQuaternionZ,motionQuaternionW,motionGravityX,motionGravityY,motionGravityZ,motionMagneticFieldX,motionMagneticFieldY,motionMagneticFieldZ,motionMagneticFieldCalibrationAccuracy
1596230611.543936,1,0,102943.71720225,2.113278985792829,-1.136393745570339,1.176210914215333,-0.08425339311361313,0.2268884629011154,0.04880289733409882,-0.04857808351516724,0.002938389778137207,0.01215797662734985,2,0.6197943210313803,0.1869724414825227,0.4637752635267651,0.6048213169976484,-0.3487206995487213,-0.9231560230255127,-0.1617926061153412,-26.62606048583984,-42.78367614746094,14.03659057617188,2
1596230611.555543,2,0,102943.74730025,2.111943296237103,-1.128662245788525,1.175412243100618,0.01386890467256308,0.25502809882164,0.00671672448515892,-0.06973475217819214,0.06416553258895874,-0.0443645715713501,2,0.618088004497785,0.1885936499276166,0.4660146180273405,0.6043426638540476,-0.3481257259845734,-0.9228487014770508,-0.164799302816391,-26.56819152832031,-42.85800170898438,13.82110595703125,2
1596230611.600213,3,0,102943.77739825,2.117404431169094,-1.124728970445368,1.17705541099624,0.1363133043050766,0.2883419692516327,-0.0638955757021904,-0.0129895806312561,0.01860171556472778,-0.02337700128555298,2,0.6167213014860478,0.1920894103266954,0.4683621027353274,0.6028213525923499,-0.3461065888404846,-0.9234803318977356,-0.1655129939317703,-26.80525970458984,-42.47855377197266,13.97213745117188,2
1596230611.615806,4,0,102943.80749725,2.122208154035194,-1.122750933748237,1.180464054932027,0.06384225189685822,0.1314142048358917,-0.07215496897697449,0.01141852140426636,0.01258242130279541,-0.01427042484283447,2,0.6159381399046535,0.1954580145684192,0.4693499861725136,0.6017700496143692,-0.342939555644989,-0.9247826933860779,-0.16483274102211,-26.90447998046875,-42.63253021240234,13.8818359375,2
1596230611.648175,5,0,102943.83759525,2.124524740360532,-1.122492769197108,1.181717497227547,0.04855195805430412,-0.01672659814357758,-0.0142380828037858,0.01689258217811584,0.02615714073181152,-0.01765036582946777,2,0.6157030095547993,0.1967243583229854,0.4697331507623717,0.6012988152505903,-0.3418519794940948,-0.9252588748931885,-0.1644186675548553,-26.84265899658203,-42.78828430175781,13.89694213867188,2
1596230611.676005,6,0,102943.86769325,2.124229276206142,-1.126153654750738,1.183822036913705,0.01533080544322729,-0.1937042325735092,-0.1197456195950508,0.01678547263145447,0.03413581848144531,-0.02741408348083496,2,0.6166769707815057,0.1963300760667089,0.4678559676636456,0.6018927283152005,-0.3406926989555359,-0.9260551929473877,-0.1623280346393585,-26.82023620605469,-42.68051910400391,13.85894775390625,2
1596230611.728405,7,0,102943.89779125,2.125399371756193,-1.137696040921395,1.18984033170927,0.1746814846992493,-0.5861901640892029,-0.2559649348258972,-0.02123185992240906,0.05026054382324219,-0.06204408407211304,2,0.6194844993199844,0.1954927452673913,0.4627496335615655,0.6032283466870678,-0.337478905916214,-0.9283096194267273,-0.1560430824756622,-26.50942230224609,-42.78400421142578,13.89181518554688,2
1596230611.73626,8,0,102943.92789025,2.127519512474875,-1.166113805850782,1.194257518339162,0.1884631663560867,-0.9938619136810303,-0.05767425894737244,0.04283761978149414,-0.02646821737289429,-0.04990673065185547,2,0.6259426041005536,0.1892309499396707,0.4531496292727847,0.6058407133403352,-0.3380036950111389,-0.9299429059028625,-0.144775003194809,-25.97315216064453,-43.07711791992188,14.74273681640625,2
1596230611.789752,9,0,102943.95798825,2.136965047489991,-1.197378035444985,1.199874123794266,-0.03178174048662186,-0.5561701059341431,-0.04487887024879456,0.09643015265464783,-0.05686056613922119,0.1295013427734375,2,0.6322348009117764,0.1848340478847254,0.4444046425442104,0.607140928731323,-0.3374955356121063,-0.9319934844970703,-0.1322310566902161,-25.49452972412109,-42.83180236816406,15.19534301757812,2
1596230611.796397,10,0,102943.98808625,2.137103571027942,-1.210622362171751,1.196316650308784,0.06121336668729782,-0.3662107586860657,0.1280244141817093,-0.2034450769424438,0.07888078689575195,-0.02337831258773804,2,0.6350699905901552,0.179519762328003,0.4413757569805709,0.6079855335734535,-0.3423181474208832,-0.9306980967521667,-0.1289175301790237,-25.19328308105469,-43.05760955810547,15.84033203125,2
1596230611.845453,11,0,102944.01818425,2.136809373226922,-1.217516565999029,1.200774116594498,0.06662661582231522,-0.03221119940280914,-0.4080755412578583,-0.1713913679122925,0.07291007041931152,0.04262465238571167,2,0.6367107342931545,0.1789987872774033,0.4376836342449014,0.6090910617393057,-0.3393025994300842,-0.9323193430900574,-0.1251177489757538,-25.17999267578125,-42.93706512451172,15.94650268554688,2
1596230611.856622,12,0,102944.04828225,2.133282175560259,-1.212212643826845,1.211287816544264,0.04163715243339539,0.03494155406951904,-0.1327245235443115,0.08507251739501953,-0.06865859031677246,0.01586759090423584,2,0.6360972244772898,0.1834283895249232,0.4349597948870904,0.6103641633372787,-0.3294371962547302,-0.9360698461532593,-0.1234686970710754,-24.52681732177734,-43.40924835205078,16.18991088867188,2
1596230611.907199,13,0,102944.07838125,2.135347052792417,-1.217337997870714,1.212451959274615,0.06311766058206558,-0.2378285229206085,-0.0441242940723896,0.08699250221252441,0.03398978710174561,-0.02139949798583984,2,0.6370448887625432,0.1829566383570191,0.43358855723965,0.6104930605106633,-0.3290432393550873,-0.9364787936210632,-0.1214013546705246,-24.34075927734375,-43.26539611816406,16.12725830078125,2
1596230611.916726,14,0,102944.10847925,2.138408635352698,-1.227825780615926,1.215009500246037,0.06434060633182526,-0.25054532289505,-0.05171649158000946,-0.002035588026046753,0.03304946422576904,-0.02727735042572021,2,0.6390783797356956,0.1816860843406619,0.4303638560202083,0.6110286956604292,-0.3280416429042816,-0.9373726844787598,-0.1171379834413528,-24.04220581054688,-43.21047210693359,16.39773559570312,2
1596230611.970105,15,0,102944.13857725,2.146787050226306,-1.241131106191506,1.21774609980722,0.123695582151413,-0.1430259644985199,-0.06435732543468475,-0.01400947570800781,-0.02011024951934814,-0.01195555925369263,2,0.6412139539718122,0.1813246184500851,0.427793088662351,0.6107037958335384,-0.3271425366401672,-0.9383224248886108,-0.111932098865509,-23.99889373779297,-43.29512786865234,16.88812255859375,2
1596230611.977279,16,0,102944.16867525,2.152129434693212,-1.250356788148056,1.21898939250866,0.05742846801877022,-0.1730450689792633,0.03765968978404999,0.03781107068061829,0.02033329010009766,0.02977371215820312,2,0.6427144095871196,0.1806856520500401,0.4260673047532129,0.6105224004544272,-0.3270539045333862,-0.9387515783309937,-0.108541764318943,-23.60755920410156,-43.28113555908203,16.98159790039062,2
1596230612.02659,17,0,102944.19877425,2.163576181765071,-1.26831311836003,1.217755833044454,0.2298073023557663,-0.2667416036128998,0.1089475676417351,0.01851481199264526,0.1246987581253052,-0.05072164535522461,2,0.6454936317539898,0.1784363845416044,0.4241681979601888,0.6095735694955506,-0.3300555348396301,-0.938325822353363,-0.1029968559741974,-23.65708923339844,-42.99468231201172,17.43731689453125,2
1596230612.037398,18,0,102944.22887225,2.194264253006092,-1.306103871564078,1.219512086944326,0.3423645496368408,-0.3701297044754028,-0.002447910374030471,-0.04282325506210327,0.007011532783508301,-0.08807456493377686,2,0.6507443524676723,0.1775410904749593,0.4206959474841577,0.6066513967854426,-0.3321199119091034,-0.9389315843582153,-0.09002190083265305,-23.58749389648438,-42.97589111328125,17.68148803710938,2
1596230612.087654,19,0,102944.25897025,2.211273562172863,-1.331888136786555,1.220142764113814,0.1330381035804749,-0.3021045327186584,0.03787963092327118,0.07307696342468262,-0.02971017360687256,-0.02559173107147217,2,0.6546382305367945,0.1755109719058031,0.4172367177077104,0.6054406284061964,-0.3337552547454834,-0.9391484260559082,-0.0812893733382225,-23.75238037109375,-42.89751434326172,18.45022583007812,2
1596230612.097395,20,0,102944.28906825,2.223469943494027,-1.355479276926114,1.217234196003906,0.0188152901828289,-0.4528416395187378,0.223113477230072,0.02382749319076538,0.01450002193450928,0.1256569623947144,2,0.6585314142654749,0.1713120768550984,0.4140953927244162,0.6045772518342876,-0.3382468819618225,-0.9381452798843384,-0.07397709786891937,-23.61499786376953,-42.79114532470703,18.68576049804688,2
1596230612.146399,21,0,102944.31916625,2.22766505945864,-1.374462865966055,1.213239852917616,0.08055171370506287,-0.5911356210708618,0.02775701135396957,-0.03024661540985107,0.00677335262298584,0.03175568580627441,2,0.6621733379393611,0.1654985300930233,0.4103465678822606,0.6047746613782244,-0.3432624638080597,-0.9367548227310181,-0.06827341765165329,-23.47163391113281,-42.60446166992188,19.07473754882812,2
1596230612.157543,22,0,102944.34926525,2.229776286347008,-1.392690097667718,1.211521002169733,-0.1125050783157349,-0.4356918931007385,0.1359569281339645,-0.0345325767993927,0.03419208526611328,0.05573642253875732,2,0.6657597004631397,0.1600580542847563,0.4054713532099606,0.6055893365771063,-0.3460340797901154,-0.9361518621444702,-0.06229088082909584,-23.14273071289062,-42.47019195556641,19.32403564453125,2
1596230612.205329,23,0,102944.37936325,2.219905618885201,-1.396346483214699,1.207804258287601,-0.07038389146327972,-0.4265734851360321,-0.04403498023748398,-0.1799419820308685,-0.01021468639373779,-0.08693325519561768,2,0.6673638824716619,0.1543084570767855,0.4024203442125323,0.6073484824296016,-0.3496835827827454,-0.934838593006134,-0.06162869557738304,-23.02725219726562,-42.45232391357422,19.60537719726562,2
1596230612.217814,24,0,102944.40946125,2.218587194996605,-1.407097247396728,1.21105641471566,-0.09200741350650787,-0.2409360110759735,-0.05616064742207527,-0.03232410550117493,0.06787014007568359,0.04806292057037354,2,0.6695355535451873,0.1517797349771897,0.397409755197611,0.6088929223663311,-0.3473246991634369,-0.9359884262084961,-0.05737010762095451,-22.81687927246094,-42.524169921875,19.62353515625,2
1596230612.267944,25,0,102944.43955925,2.208430052479581,-1.402647847411394,1.210145737508554,-0.01714727841317654,-0.1737833917140961,0.002909304574131966,0.01926040649414062,-0.00337827205657959,-0.0189213752746582,2,0.6694394781203201,0.1494054548951086,0.3960881494332573,0.6104450112434696,-0.3479064702987671,-0.9356674551963806,-0.05905758962035179,-22.69483184814453,-42.53263092041016,19.81967163085938,2
1596230612.278009,26,0,102944.46965825,2.217180507693487,-1.41744110056991,1.211961622152018,0.09939150512218475,-0.3219774961471558,0.02428964711725712,0.1773709356784821,-0.03787124156951904,-0.01503902673721313,2,0.6716621705206306,0.1484836841013165,0.393229859090073,0.6100762342267196,-0.3470624983310699,-0.9363067150115967,-0.0536450482904911,-22.51692962646484,-42.71763610839844,19.87258911132812,2
1596230612.327995,27,0,102944.49975625,2.232275923394415,-1.443336724501759,1.205314344356281,0.3890332579612732,-0.4444475769996643,0.3267855644226074,0.1167497634887695,0.01870137453079224,-0.1021314859390259,2,0.675836136826035,0.1432833484928997,0.3911754523274266,0.608027380662466,-0.3545006215572357,-0.9339516162872314,-0.04543079808354378,-22.40170288085938,-42.44804382324219,20.393798828125,2
1596230612.338233,28,0,102944.52985425,2.281111209354411,-1.501960425055365,1.201943535414591,0.6114638447761536,-0.3495930135250092,0.01290159486234188,0.09315800666809082,0.06618058681488037,-0.05050504207611084,2,0.6839119050445781,0.1409433991580699,0.3870603325536047,0.6021494701068493,-0.3596923649311066,-0.9327415823936462,-0.02479892782866955,-22.63067626953125,-42.2451171875,20.86495971679688,2
1596230612.387723,29,0,102944.55995225,2.327645845386349,-1.557881761980138,1.202280650314501,0.5363841652870178,-0.4522406160831451,0.04793370887637138,0.205627977848053,0.08417224884033203,-0.0002186298370361328,2,0.6913691683978377,0.1402947665600495,0.381683578790576,0.5971966159422404,-0.3602013885974884,-0.9328630566596985,-0.004652102943509817,-22.12895965576172,-41.66151428222656,22.2471923828125,2
1596230612.39838,30,0,102944.59005125,2.35575859160362,-1.601328475860172,1.201202073907301,0.1307783424854279,-0.8295959234237671,0.05486442521214485,0.1201582849025726,-0.3108447194099426,0.1748658418655396,2,0.6977221809219156,0.1367391028589197,0.3752931027099229,0.5946776035058782,-0.3610692918300629,-0.9324740171432495,0.01102764811366796,-21.81864929199219,-41.24832916259766,23.10565185546875,2
1596230612.447136,31,0,102944.62014925,2.358705908922107,-1.627696281911749,1.192637274457395,0.1262064427137375,-0.7462452054023743,0.5344253182411194,-0.03079494833946228,0.2980605363845825,-0.02594411373138428,2,0.7031126498339032,0.1270076970043206,0.3694529930557789,0.5941431712953829,-0.3686126470565796,-0.9293459057807922,0.0209967065602541,-21.67415618896484,-41.34599304199219,23.55615234375,2
1596230612.458651,32,0,102944.65024725,2.379854610592028,-1.669822665514263,1.184002290895475,0.3672301173210144,-0.7430626749992371,-0.3466254770755768,-0.6607365608215332,0.1959320306777954,-0.2180927991867065,2,0.7102583923483216,0.1190795573560501,0.3633440384099955,0.5910450967579201,-0.3753735423088074,-0.9261232018470764,0.03729385137557983,-21.16942596435547,-40.60610198974609,24.48049926757812,2
1596230612.507981,33,0,102944.68034525,2.425029359453832,-1.712241838770318,1.208653737955665,0.6090171933174133,0.8641467094421387,-1.041983723640442,-0.5392064452171326,-0.002035975456237793,-0.1510818004608154,2,0.7126468142080049,0.1307924278823361,0.3545557470876769,0.5910315365576617,-0.3507411479949951,-0.9351398944854736,0.04994428157806396,-20.59809112548828,-40.53800964355469,24.78207397460938,2
1596230612.518809,34,0,102944.71044325,2.49622599448734,-1.745042010253774,1.229458186913308,0.7499719858169556,0.9831451177597046,-0.6309607625007629,-0.1301971673965454,-0.01013565063476562,-0.2995104789733887,2,0.7110138154957686,0.1532195652557452,0.3580100012201327,0.5855014892769006,-0.329679548740387,-0.9423075914382935,0.05803376063704491,-20.32495880126953,-40.82602691650391,25.14508056640625,2
1596230612.567604,35,0,102944.74054225,2.578052185483831,-1.794674788412504,1.244821834191327,0.6744224429130554,0.9211235642433167,-0.7192978858947754,0.1524797976016998,0.04389965534210205,0.116036057472229,2,0.7111462991819842,0.1726813759987579,0.3600395379775572,0.5786396327558146,-0.3122409880161285,-0.9473391175270081,0.07109583169221878,-20.20339202880859,-40.71319580078125,25.49880981445312,2
1596230612.579045,36,0,102944.77064025,2.653810884733712,-1.841181952682424,1.257018584027627,0.6228400468826294,0.7262130975723267,-0.3928244113922119,0.3343457281589508,-0.0448489785194397,0.2842522859573364,2,0.7107461556857093,0.1898978689458309,0.3621722972083103,0.5723723179284101,-0.2974405586719513,-0.9511743187904358,0.08244259655475616,-20.01158905029297,-40.40369415283203,25.93649291992188,2
1596230612.62664,37,0,102944.80073825,2.697501284267204,-1.865142952685043,1.257595405707551,0.3638524413108826,0.4888009428977966,0.08392374217510223,0.2342821359634399,-0.1325132846832275,0.06766486167907715,2,0.7107632209985677,0.1987678265716553,0.3659585706152432,0.5669051387146203,-0.2948547899723053,-0.9513522386550903,0.08938600867986679,-20.09773254394531,-40.35637664794922,26.07785034179688,2
1596230612.639192,38,0,102944.83083625,2.721472432621648,-1.878409043413108,1.251909390695841,0.1808587461709976,0.05241992324590683,0.08498340100049973,0.2010888457298279,0.1098969578742981,0.1532204151153564,2,0.711820530858452,0.2019268761546565,0.369371160498781,0.5622295219249156,-0.2987934350967407,-0.9495849609375,0.09492586553096771,-20.66683959960938,-40.02747344970703,26.23040771484375,2
1596230612.688064,39,0,102944.86093525,2.727295681215076,-1.884549342721593,1.245346717332024,0.05155052244663239,-0.03237750381231308,0.3466012477874756,0.1997654438018799,-0.05251824855804443,0.1572885513305664,2,0.713561694489542,0.2004238158088824,0.3703678464145921,0.5598997245036655,-0.3041261434555054,-0.9475070834159851,0.09867999702692032,-20.68949890136719,-39.88400268554688,26.17825317382812,2
1596230612.699721,40,0,102944.89103325,2.708998090519027,-1.873755795840762,1.232198387292384,-0.1237549632787704,-0.3782264590263367,0.5506563782691956,0.2320951521396637,-0.08759379386901855,0.1577626466751099,2,0.7157069516814005,0.1931675895493502,0.372219018855851,0.5584827733200037,-0.3170379400253296,-0.9432213306427002,0.09910031408071518,-21.03485107421875,-39.52790832519531,26.46017456054688,2
1596230612.745114,41,0,102944.92113125,2.660033505290101,-1.851551698824239,1.214760347631082,-0.7267740368843079,-1.495067596435547,1.002862453460693,0.296663761138916,0.1813379526138306,0.342629075050354,2,0.7190599371150953,0.1767563245040764,0.3706930464169185,0.5606216998884267,-0.3349141776561737,-0.9372859001159668,0.09657998383045197,-21.27626037597656,-39.42172241210938,26.59323120117188,2
1596230612.759704,42,0,102944.95122925,2.5661336952503,-1.820034883558686,1.189387960812206,-0.9358063340187073,-1.74940812587738,1.05423891544342,0.1099384725093842,-0.1993001103401184,0.2868962287902832,2,0.7246616494464873,0.1441302510944835,0.3619454840222107,0.5684078470395193,-0.3607265055179596,-0.9281412959098816,0.09181606769561768,-21.39926147460938,-39.35246276855469,26.56048583984375,2
1596230612.807482,43,0,102944.98132825,2.444311065321133,-1.765818802903649,1.159740339471146,-1.585397839546204,-2.458964586257935,1.786433339118958,0.2346449792385101,-0.02629750967025757,0.2441173791885376,2,0.7262557160766181,0.1061574653977256,0.3545543352964301,0.5792878371658827,-0.3920027613639832,-0.9166994094848633,0.07743354886770248,-21.23435974121094,-39.65230560302734,26.43368530273438,2
1596230612.819858,44,0,102945.01142625,2.31102192750332,-1.728212810674369,1.103147326042897,-1.385063290596008,-3.28072714805603,2.369039058685303,0.1471210420131683,-0.01053440570831299,-0.1452046632766724,2,0.7299542725004206,0.0500121041970637,0.3452319065124241,0.5877758667637638,-0.4452151954174042,-0.8926305770874023,0.07066889852285385,-21.43367767333984,-39.70256805419922,25.95071411132812,2
1596230612.868582,45,0,102945.04152425,2.14103925874988,-1.716480601092598,1.030248545065075,-4.05443811416626,-6.630474090576172,3.826421499252319,-0.2015475034713745,-1.370346784591675,0.3708150386810303,2,0.7322885908269126,-0.03325600322625544,0.3203981655159567,0.5999938099887805,-0.5091546177864075,-0.8574269413948059,0.0747050866484642,-21.32537841796875,-39.48685455322266,26.05319213867188,2
1596230612.879975,46,0,102945.07162225,1.811877253738404,-1.692360659588582,0.9004494439626628,-6.582545757293701,-9.080315589904785,6.208761215209961,0.8530591726303101,-0.4651052355766296,0.2658807039260864,2,0.7085099051054458,-0.1888972461349684,0.2686579862974909,0.6246233895242979,-0.6166729927062988,-0.783606231212616,0.07533691078424454,-20.81914520263672,-40.63603210449219,24.77304077148438,2
1596230612.926212,47,0,102945.10172125,1.460470283826576,-1.757196585799502,0.7191886784982437,-7.577262878417969,-12.06606578826904,7.663557529449463,0.9823616743087769,0.5941923856735229,0.7973048686981201,2,0.6479996033142954,-0.3870522196153987,0.196670468320185,0.6257858626084408,-0.7393083572387695,-0.6587744951248169,0.1394258141517639,-22.72108459472656,-41.59478759765625,21.5252685546875,2
1596230612.94037,48,0,102945.13181925,1.078686919964401,-1.898749574411956,0.5845474086802547,-9.608514785766602,-12.97076225280762,5.651447772979736,0.8077909350395203,1.215391039848328,1.084216713905334,2,0.5437875444497344,-0.5818996727103249,0.08530766414703145,0.5986740642307768,-0.78951495885849,-0.5518220067024231,0.2686242461204529,-23.51911926269531,-41.88389587402344,19.66824340820312,2
1596230612.987678,49,0,102945.16191725,0.7191710079710568,-2.115545592864763,0.5846815684189792,-8.576491355895996,-13.16951370239258,3.025612354278564,0.5841196179389954,0.3860214948654175,0.6288686990737915,2,0.4259812253522636,-0.7311647707905563,-0.06965148935308446,0.5282867140595424,-0.7131888270378113,-0.5519338846206665,0.4321238398551941,-22.68163299560547,-44.06431579589844,15.68450927734375,2
1596230613.000348,50,0,102945.19201525,0.426819711095671,-2.323317187808557,0.6528184801411974,-5.822831153869629,-13.27903175354004,2.810781240463257,0.05847305059432983,0.3689101934432983,0.3462939262390137,2,0.3087176043531009,-0.8222917257069784,-0.2076989542325171,0.4305706552516635,-0.5798687338829041,-0.607427716255188,0.5429404973983765,-21.88232421875,-45.13329315185547,13.40557861328125,2
1596230613.046526,51,0,102945.22211325,0.2962798943304334,-2.561485884360013,0.6887969448460011,-1.037636518478394,-2.162839889526367,0.4504095613956451,-0.1439077258110046,0.3917549252510071,2.045306921005249,2,0.2286340079121444,-0.8778286547127971,-0.2802488758874602,0.3140125220438437,-0.4231495261192322,-0.6356088519096375,0.6457133293151855,-19.84763336181641,-45.67198944091797,13.6280517578125,2
1596230613.060758,52,0,102945.25221225,0.3308573949285461,-2.424208565274669,0.6544348900329141,4.646775722503662,7.885637760162354,-0.4008563756942749,-3.194635152816772,0.1128716468811035,-0.6954288482666016,2,0.2573035306349971,-0.8559885912619131,-0.2421033102327693,0.3774445756459338,-0.5215884447097778,-0.6087110042572021,0.5978431701660156,-20.77951049804688,-45.67288208007812,13.13211059570312,2
1596230613.104968,53,0,102945.28231025,0.5273520607607114,-2.228144849260025,0.5589586266412589,6.149208068847656,10.61246109008789,-2.502705812454224,-0.07071989774703979,0.5896204113960266,1.029201030731201,2,0.3422913240794404,-0.8011556739125032,-0.1285426108183418,0.4737752527529318,-0.6711374521255493,-0.5303035974502563,0.5180275440216064,-23.56285095214844,-43.79212188720703,14.636474609375,2
1596230613.120671,54,0,102945.31240825,0.6559418618494727,-2.109655166863893,0.6139417066653559,-2.516385793685913,-0.2173140645027161,-4.507786750793457,1.120347738265991,0.09114563465118408,0.8923145532608032,2,0.4082280200948961,-0.7369348614242164,-0.09732571106967533,0.5299102136090059,-0.7015564441680908,-0.5760937929153442,0.41944620013237,-23.85883331298828,-43.70506286621094,14.674072265625,2
1596230613.162244,55,0,102945.34250625,0.6436945426582563,-2.236834144510642,0.7404864881914798,0.07300759106874466,-7.799296855926514,-1.323716282844543,2.494174480438232,-0.3967214226722717,-1.176451206207275,2,0.4152652364871016,-0.7453819603304168,-0.1798372354940013,0.4895091017355666,-0.580382227897644,-0.6746470928192139,0.456078976392746,-17.23091125488281,-47.19274139404297,11.71954345703125,2
1596230613.180841,56,0,102945.37260525,0.6114818252187678,-2.486622717036354,0.7069476337472279,-1.978525280952454,-7.773060321807861,4.252676963806152,0.4672168493270874,-0.1405344605445862,1.460225820541382,2,0.3735655327969288,-0.8136043708065426,-0.2217272530462087,0.38643743883489,-0.463155061006546,-0.6495159268379211,0.6030065417289734,-14.51797485351562,-47.55068206787109,14.241943359375,2
1596230613.222596,57,0,102945.40270325,0.359754467987569,-2.456575883497803,0.7008187532652668,-2.870704412460327,-1.542965054512024,4.714219570159912,-1.579134821891785,0.1838005185127258,0.09945249557495117,2,0.271708014151881,-0.8497767941851637,-0.2616905696345698,0.3682013985445946,-0.4835711717605591,-0.6448436975479126,0.5918917059898376,-17.88351440429688,-46.53446197509766,13.35400390625,2
1596230613.241233,58,0,102945.43280125,0.3158679583742321,-2.417937975031899,0.6547008401949523,1.919346213340759,2.778296947479248,-1.416428804397583,-1.688756704330444,1.249270439147949,-0.249565601348877,2,0.2516853782978075,-0.8566645754742532,-0.2442562086547645,0.3783109823663566,-0.5252197980880737,-0.6089219450950623,0.5944394469261169,-21.40435028076172,-45.57161712646484,12.06890869140625,2
1596230613.286862,59,0,102945.46289925,0.4402787628910322,-2.400251363980626,0.690086179927053,0.7959315180778503,2.62035059928894,-3.986100196838379,-0.1181954741477966,0.169344425201416,0.04616618156433105,2,0.3111054654619981,-0.829225370863044,-0.2332186113499852,0.4015070362629621,-0.5207684636116028,-0.6366036534309387,0.5688026547431946,-20.27899169921875,-45.90104675292969,12.83795166015625,2
1596230613.302446,60,0,102945.49299825,0.5394230435701995,-2.425234610175548,0.7517064864765465,-0.2967589497566223,-0.188262939453125,-2.071407556533813,1.214007973670959,-0.6214777827262878,-0.2600301504135132,2,0.3561540396886136,-0.805379414427386,-0.2444531401078612,0.4059076946892489,-0.4796934425830841,-0.6828863620758057,0.5509634017944336,-17.47504425048828,-46.87834167480469,12.73626708984375,2
1596230613.346276,61,0,102945.52309625,0.5445226236310704,-2.482674839129446,0.7694807226362286,-0.3890853822231293,-2.992372512817383,1.086764574050903,1.542816877365112,-0.07697731256484985,0.1800863742828369,2,0.3528007900010247,-0.8120864995848533,-0.2614110092278419,0.3843325395526238,-0.439770519733429,-0.6957623362541199,0.5679057836532593,-14.11952972412109,-48.14775085449219,12.57717895507812,2
1596230613.361428,62,0,102945.55319425,0.4639473605644586,-2.518415525732578,0.7496873349476564,-0.8082623481750488,-2.504839658737183,2.399074554443359,0.4370075762271881,0.0825309157371521,0.5128176212310791,2,0.3128716962989861,-0.8362260824404281,-0.2735759857881643,0.3577619933787565,-0.4271514415740967,-0.6814099550247192,0.5943255424499512,-15.19949340820312,-47.68451690673828,12.77166748046875,2
1596230613.402874,63,0,102945.58329225,0.3728612893740583,-2.506703578790996,0.7271979794726012,-0.4856555461883545,-0.9107012152671814,1.747642874717712,-0.7533014416694641,0.2339313626289368,0.2405295372009277,2,0.273665194284339,-0.8519639096363054,-0.2779429614865485,0.3493032464626861,-0.4430609047412872,-0.664779007434845,0.6014702916145325,-16.82206726074219,-47.26249694824219,12.59063720703125,2
1596230613.421741,64,0,102945.613391,0.3529379771596146,-2.499544918225998,0.7199603724220145,0.2897704541683197,0.5403519868850708,-0.7708473205566406,-0.9284431934356689,0.3681119084358215,-0.06773161888122559,2,0.2653323527875839,-0.8547859943763996,-0.2772251456923079,0.3494080793617829,-0.4502246677875519,-0.6593548655509949,0.6021206974983215,-18.71273040771484,-46.76326751708984,12.47488403320312,2
1596230613.461958,65,0,102945.64349,0.4042610460579771,-2.516965147400762,0.7365057662681717,0.1691730916500092,0.3409503698348999,-1.479432940483093,-0.108468234539032,-0.01358139514923096,-0.1712095737457275,2,0.2865950950906394,-0.847545242434723,-0.2780479927508001,0.3495993394564569,-0.4332281351089478,-0.6717033982276917,0.6009393930435181,-17.71395874023438,-46.83631896972656,12.6204833984375,2
1596230613.481885,66,0,102945.673588,0.4290801680494724,-2.536335601968008,0.7518826706564438,-0.1557639390230179,-0.5318171977996826,0.01340697146952152,0.4950878024101257,-0.2123355269432068,-0.2606706619262695,2,0.2959433568552702,-0.844241611194873,-0.2834102009033982,0.3454744064024825,-0.4155810177326202,-0.6830151081085205,0.6006527543067932,-15.74730682373047,-47.46317291259766,12.57351684570312,2
1596230613.524186,67,0,102945.703686,0.4057154423231409,-2.547129019819285,0.746201077798217,-0.1925059109926224,-0.9778963923454285,0.7628129124641418,0.2558399438858032,-0.1134191751480103,-0.1131727695465088,2,0.2839470871581806,-0.8506045754322282,-0.2864289072141298,0.3373493682897334,-0.4112405180931091,-0.67885422706604,0.6083081960678101,-15.96117401123047,-47.46676635742188,12.680908203125,2
1596230613.542199,68,0,102945.733784,0.385450770144591,-2.554658398136537,0.7422537178240272,-0.07805370539426804,-0.3637718260288239,0.1764801144599915,-0.1367944777011871,-0.1584769487380981,-0.09474647045135498,2,0.2738305448135678,-0.8554668348981551,-0.2890995898410281,0.3310811718922199,-0.4081293344497681,-0.6759505271911621,0.6136133670806885,-16.67163848876953,-47.39752960205078,12.72164916992188,2
1596230613.586155,69,0,102945.763883,0.3806811027245991,-2.555430071400446,0.7408685065097065,0.04720152541995049,0.1242771744728088,0.1306497007608414,-0.14573734998703,-0.01832294464111328,-0.0767514705657959,2,0.271540069854978,-0.8565161243181028,-0.2893725837463036,0.3300147456252683,-0.4081734120845795,-0.6749290227890015,0.6147077679634094,-16.89961242675781,-47.42375183105469,12.73724365234375,2
1596230613.603008,70,0,102945.793981,0.3777905985186125,-2.547519971704868,0.7364148778390394,0.08999030292034149,0.1746496558189392,0.04331202059984207,-0.188161700963974,0.06354439258575439,-0.01906323432922363,2,0.2709934888404659,-0.8564664587832038,-0.2867833554903678,0.3328409012816792,-0.4147012829780579,-0.6716361045837402,0.6139445304870605,-17.04183959960938,-47.29121398925781,12.8155517578125,2
1596230613.642203,71,0,102945.824079,0.3817392250077364,-2.55169531941938,0.7385435955893909,-0.05764128640294075,-0.2149283885955811,-0.3161663413047791,-0.1714446544647217,0.1622179746627808,0.1092684268951416,2,0.2722996826304074,-0.8562088041083034,-0.2876481543937084,0.3316895593156809,-0.4113380312919617,-0.6732116937637329,0.6144812703132629,-16.89570617675781,-47.00890350341797,12.94833374023438,2
1596230613.66248,72,0,102945.854177,0.3973839397731264,-2.559902586127526,0.7459009039035104,0.09031025320291519,0.516766369342804,-0.4996934831142426,0.03528964519500732,0.08514857292175293,0.1550321578979492,2,0.2785282534618294,-0.8539688801007204,-0.2894823512449346,0.3306952488727605,-0.4035488665103912,-0.6786337494850159,0.6136816740036011,-16.34489440917969,-47.30670928955078,12.81463623046875,2
1596230613.702191,73,0,102945.884276,0.410473449594437,-2.547800973231188,0.7496922599088873,0.03294790163636208,0.6909894347190857,-0.2173276245594025,0.01263880729675293,-0.06382787227630615,-0.04531049728393555,2,0.2862150240331232,-0.8493462883285412,-0.2872808702159084,0.3378782730794654,-0.4095031023025513,-0.6814135313034058,0.6066163182258606,-15.9212646484375,-47.72882080078125,12.69784545898438,2
1596230613.7227,74,0,102945.914374,0.4205379237431969,-2.532720837908791,0.7518099310599258,0.1707592159509659,0.7289858460426331,-0.3132400810718536,-0.0507049560546875,0.01183837652206421,-0.124113917350769,2,0.292841977649937,-0.8448888186053818,-0.284321991970268,0.345785476289839,-0.4177777469158173,-0.6829619407653809,0.5991870760917664,-15.78054046630859,-47.45943450927734,12.61798095703125,2
1596230613.768184,75,0,102945.944472,0.441238010370357,-2.523259745950693,0.7540207523177976,0.2821022570133209,1.005489110946655,-0.5806207060813904,0.05365195870399475,-0.1754912137985229,-0.09705698490142822,2,0.3031158864521268,-0.8397074564697011,-0.2802808179784201,0.352781569715217,-0.4225514829158783,-0.6845752000808716,0.5939757227897644,-15.85842895507812,-47.66149139404297,12.44558715820312,2
1596230613.785348,76,0,102945.97457,0.4640068206445651,-2.502560639673916,0.7550116870322084,0.2269057333469391,1.374603509902954,-0.2745961844921112,0.1305838525295258,-0.2477729320526123,0.0329277515411377,2,0.3155987947723405,-0.8322718675179357,-0.2734346826695858,0.3646293898721598,-0.4343502521514893,-0.6852971911430359,0.5845581293106079,-15.24953460693359,-47.54064178466797,12.51296997070312,2
1596230613.824322,77,0,102946.004669,0.4748305272787586,-2.463214694418892,0.7540495474880524,0.2886109054088593,1.765645861625671,-0.2859178781509399,-0.08530217409133911,-0.08709096908569336,-0.004472017288208008,2,0.325271055363997,-0.8233864717268478,-0.2646842020314764,0.3823294221023099,-0.4574215412139893,-0.6845961809158325,0.5675330758094788,-15.42422485351562,-47.8076171875,12.321044921875,2
1596230613.84336,78,0,102946.034767,0.5023569531648032,-2.430794111854679,0.7565499461723278,0.2481375932693481,1.595904946327209,-0.7758544683456421,-0.1003493070602417,0.002370178699493408,0.1864632368087769,2,0.3410170875446734,-0.8119493402605102,-0.2550025696773036,0.3992736731799169,-0.4744595289230347,-0.6864166259765625,0.5511087775230408,-15.44385528564453,-47.81734466552734,12.07186889648438,2
1596230613.885544,79,0,102946.064865,0.5269280758302672,-2.397146837646828,0.7690593450597896,0.1768852919340134,1.815024733543396,-0.6536882519721985,0.03258147835731506,0.07574588060379028,0.1956241130828857,2,0.356597360926134,-0.7981714773701737,-0.2495801136247693,0.4164979905179864,-0.4868744015693665,-0.6954596042633057,0.528478741645813,-14.91682434082031,-47.99248504638672,11.64215087890625,2
1596230613.903392,80,0,102946.094963,0.5619813937995538,-2.361743123329187,0.7743008712220059,0.5916187167167664,2.252673864364624,-0.7765141725540161,0.2261191606521606,0.1406810879707336,0.1738572120666504,2,0.3753948215696252,-0.7830939884933039,-0.2379074067493773,0.4350202682954352,-0.5027050971984863,-0.6992164254188538,0.5083149075508118,-14.80722045898438,-48.07916259765625,11.42218017578125,2
1596230613.942927,81,0,102946.125062,0.5977287563190141,-2.305566461985026,0.7734864523006965,0.7706592082977295,3.122215509414673,-0.3177419602870941,0.22708660364151,-0.01135265827178955,0.1027965545654297,2,0.3955344730137944,-0.7637978578864906,-0.2187216733316237,0.4607887525928308,-0.530875027179718,-0.6986339688301086,0.4796693623065948,-14.62496185302734,-48.08269500732422,11.3819580078125,2
1596230613.963586,82,0,102946.15516,0.6373236641956643,-2.228931559907514,0.7601857001791624,1.222283363342285,3.71566915512085,-0.3423888087272644,-0.04004639387130737,0.091472327709198,0.03894710540771484,2,0.4164223395163029,-0.7404212663205272,-0.1880736022549476,0.4929474321658535,-0.573341429233551,-0.6890560388565063,0.4432624280452728,-14.84527587890625,-48.07692718505859,11.48202514648438,2
1596230614.005201,83,0,102946.185258,0.6907045059403574,-2.150293446193403,0.7474582886402872,1.401483654975891,4.020766258239746,-0.3798257410526276,-0.04716050624847412,0.1890605688095093,0.06560802459716797,2,0.4406195145930521,-0.7118046150112262,-0.1523013014296911,0.5253504038407005,-0.613679826259613,-0.6797768473625183,0.4016227424144745,-15.98332977294922,-47.76516723632812,11.84201049804688,2
1596230614.02366,84,0,102946.215356,0.7527584768845456,-2.060713989351301,0.7285786866545942,1.908754944801331,4.703482627868652,-0.122273750603199,0.01987099647521973,0.1749634146690369,-0.02853798866271973,2,0.4649717487460828,-0.6777508722198502,-0.1074214262780994,0.5593887221623349,-0.6583565473556519,-0.6658098101615906,0.3510899543762207,-16.50534820556641,-47.64824676513672,12.0386962890625,2
1596230614.065197,85,0,102946.245454,0.8347286431677651,-1.966140472853458,0.7048276551595113,2.447848320007324,5.333958148956299,-0.3241926729679108,-0.3252585530281067,0.2159085273742676,0.1921068429946899,2,0.4915589065000064,-0.6364349894894907,-0.05164700004992126,0.5921595932091858,-0.70296710729599,-0.6479025483131409,0.2933593094348907,-18.57716369628906,-46.73439788818359,12.8948974609375,2
1596230614.085069,86,0,102946.275553,0.9399368493501338,-1.850860361656321,0.6963615854453374,2.787930488586426,6.796065330505371,-0.8628653287887573,-0.4314419031143188,0.1801122426986694,0.4792129993438721,2,0.5230426209656087,-0.5765912391345438,0.01302811449983177,0.6275343379224336,-0.7372901439666748,-0.6414306163787842,0.2120620757341385,-19.59455108642578,-46.28606414794922,13.39056396484375,2
1596230614.123128,87,0,102946.305651,1.062037888881517,-1.708137697052059,0.7009487039891733,3.284434795379639,7.803315162658691,-0.6763384342193604,-0.190526008605957,0.06459301710128784,0.4863986968994141,2,0.553093139874866,-0.496390375045568,0.08923077763354992,0.6631158041199303,-0.7570344805717468,-0.6449429988861084,0.1046308502554893,-21.68561553955078,-45.28446197509766,13.66610717773438,2
1596230614.144141,88,0,102946.335749,1.206160592983653,-1.564748528271751,0.7148741842247603,3.946773767471313,7.618811130523682,-0.7734216451644897,0.0578809380531311,0.002334356307983398,0.4193559885025024,2,0.5789430318680341,-0.4031642399817997,0.1737058811266051,0.6871024990051934,-0.7551619410514832,-0.6555224061012268,-0.004567123018205166,-23.02199554443359,-44.79108428955078,13.38531494140625,2
1596230614.186169,89,0,102946.365847,1.370619844398225,-1.460686242943746,0.7509692279312209,4.202555656433105,6.661855220794678,-1.180342555046082,0.1949756145477295,0.1261301040649414,0.6092846989631653,2,0.6043244884698576,-0.3076140667382222,0.2492233410885264,0.6914140002061715,-0.7266008853912354,-0.6823475956916809,-0.08033099770545959,-25.492919921875,-43.46681213378906,13.56942749023438,2
1596230614.204817,90,0,102946.395946,1.537220496676172,-1.385116193094329,0.8104196472220636,4.217636585235596,6.281023502349854,-1.326648116111755,0.2944782376289368,0.1336430311203003,0.6004955768585205,2,0.6260083807850693,-0.2109399626423013,0.3107177815329853,0.6834269934800681,-0.6773480176925659,-0.724576473236084,-0.1272356808185577,-26.22452545166016,-42.91666412353516,14.19723510742188,2
1596230614.242243,91,0,102946.426044,1.724573513746112,-1.324531449142603,0.8730424159711501,4.917738437652588,7.506250858306885,-1.164655447006226,0.0112004280090332,0.3813689351081848,0.8847781419754028,2,0.640085926489119,-0.1094296753589376,0.3734920706916237,0.6624340765480454,-0.6231139302253723,-0.7662872076034546,-0.1566303074359894,-27.79964447021484,-41.80673217773438,14.72451782226562,2
1596230614.26446,92,0,102946.456142,1.951026613450827,-1.214641354476235,0.9690892611345567,5.622591495513916,11.77670288085938,-2.39159083366394,-0.275813102722168,0.6217044591903687,1.097626328468323,2,0.6326064831614621,0.03355150206704932,0.4526030155898606,0.6275619442460987,-0.5305278897285461,-0.8243705034255981,-0.1973666697740555,-28.91464233398438,-41.11635589599609,14.82064819335938,2
1596230614.302482,93,0,102946.48624,2.170164873768967,-1.075421976446396,1.130769308099353,5.302963256835938,9.180715560913086,-4.450887203216553,0.001239001750946045,0.7420074343681335,0.7023184895515442,2,0.5972611386375137,0.205026442966163,0.5132511162350892,0.5812198452461025,-0.3747590184211731,-0.9047401547431946,-0.2024865746498108,-30.58216857910156,-40.85750579833984,11.5772705078125,2
1596230614.324627,94,0,102946.516339,2.279909140572135,-0.9400626721982694,1.325266523867366,3.339967966079712,6.805776119232178,-4.16330623626709,1.549421310424805,-0.1684091091156006,0.5110385417938232,2,0.5535002798174908,0.3492327958825354,0.5222800604158704,0.54671519814525,-0.1963025629520416,-0.9700086712837219,-0.1433477848768234,-27.01570129394531,-43.41593933105469,10.60348510742188,2
1596230614.36861,95,0,102946.546437,2.35570912134256,-0.8995470433744519,1.409272194225487,1.635958909988403,0.3667192757129669,0.1430347263813019,1.668883800506592,-1.042010903358459,-0.8066177368164062,2,0.5293415880432755,0.4120488814771605,0.5259558380698617,0.5228611332312382,-0.125931903719902,-0.9869832992553711,-0.1000264063477516,-25.80209350585938,-44.33750152587891,10.22653198242188,2
1596230614.38684,96,0,102946.576535,2.600010105923251,-1.190641981869785,1.409570637682998,0.03166121989488602,-2.668946027755737,0.7548609972000122,0.4275201857089996,-0.2036291360855103,0.2254277467727661,2,0.5550922000507204,0.4026033591846229,0.5105396265862311,0.5187798800787233,-0.1490680873394012,-0.9870312809944153,-0.05956636741757393,-25.85233306884766,-43.61467742919922,13.07815551757812,2
1596230614.420577,97,0,102946.606632375,2.583944864444375,-1.253484493173605,1.3897515317166,-0.2092703580856323,-2.318943738937378,0.3595110177993774,-0.1899635195732117,-0.189197838306427,0.3111682534217834,2,0.5758494639179568,0.374575879721907,0.494759872173314,0.5322622632251219,-0.1710692048072815,-0.983656108379364,-0.05618061125278473,-25.71389770507812,-43.45521545410156,13.76837158203125,2
1596230614.445405,98,0,102946.636731375,2.580753752328369,-1.295038230493929,1.390168340680139,0.2071433216333389,-0.3485946357250214,-0.4237351417541504,-0.1233440041542053,0.1018171310424805,0.4582822918891907,2,0.5865410980592578,0.3626467424380038,0.4816981210577622,0.5407622449053437,-0.1728601604700089,-0.9837310910224915,-0.04891376197338104,-24.79905700683594,-43.25801849365234,15.45803833007812,2
1596230614.486719,99,0,102946.666829375,2.659295746352722,-1.359417489827881,1.411774026898499,0.7359353303909302,0.8231313824653625,-0.580619215965271,0.09803178906440735,0.02701222896575928,0.001307010650634766,2,0.5850128959405692,0.3756967774634416,0.4773936628425835,0.5373146984224173,-0.1548281013965607,-0.9873825907707214,-0.03322368487715721,-24.34682464599609,-43.38006591796875,15.52288818359375,2
1596230614.505404,100,0,102946.696927375,2.775326222019948,-1.459005022551744,1.424796256635954,0.5598122477531433,-0.09178192913532257,-0.06643467396497726,-0.08492416143417358,-0.1523488759994507,-0.3398019075393677,2,0.5847122376170035,0.3872940778394997,0.4754238965630509,0.5311186848370144,-0.1445740908384323,-0.9893609285354614,-0.01622979342937469,-23.96518707275391,-43.45020294189453,16.2938232421875,2
1596230614.54633,101,0,102946.727025375,2.861650662248087,-1.558531588806945,1.427179244463633,0.3511125445365906,-0.7433780431747437,-0.1837302148342133,-0.02768781781196594,0.0239180326461792,-0.006054878234863281,2,0.5910679059136441,0.3869897347988346,0.468418297083323,0.5305301043635664,-0.1431146413087845,-0.9897047877311707,-0.001755351549945772,-24.06642150878906,-43.35165405273438,16.7060546875,2
1596230614.565534,102,0,102946.757124375,2.949338064065329,-1.661587525075686,1.434691679632152,0.338448703289032,-0.1212023422122002,-0.1787351816892624,0.1118590533733368,0.05867147445678711,0.3740277290344238,2,0.5964497056787259,0.3878128578517106,0.4591737996584838,0.5319853785020907,-0.1351266205310822,-0.9907520413398743,0.01230212859809399,-23.29156494140625,-43.10012054443359,17.92984008789062,2
1596230614.602151,103,0,102946.787222375,3.011262946945627,-1.723530983872618,1.435896063992171,0.2891553640365601,0.05770974233746529,-0.1340460628271103,-0.2128342390060425,-0.1509569883346558,-0.05570650100708008,2,0.598319638521134,0.3901853510538654,0.456825982938297,0.5301690735556592,-0.1329275071620941,-0.9909147620201111,0.02046199515461922,-23.10085296630859,-43.03308868408203,18.3443603515625,2
1596230614.625756,104,0,102946.817320375,3.066257261673537,-1.78027575527357,1.441021525602959,0.08324424922466278,-0.3056631684303284,-0.1752434819936752,-0.1323511004447937,0.01247870922088623,-0.02234220504760742,2,0.5992320340300823,0.3929079743366198,0.4532590232749164,0.5301893561854173,-0.1265833973884583,-0.9915910363197327,0.02691141329705715,-22.72119140625,-43.04676055908203,18.81875610351562,2
1596230614.668408,105,0,102946.847418375,3.098228487134516,-1.818314221151121,1.445048645405571,0.202747717499733,-0.00104319816455245,-0.2338129431009293,0.01315128803253174,-0.001664638519287109,0.08728456497192383,2,0.6005188256682273,0.3933709563008945,0.4494742902742976,0.5316102367157927,-0.1215954944491386,-0.992104172706604,0.03072713874280453,-22.68767547607422,-42.81887054443359,18.75216674804688,2
1596230614.686629,106,0,102946.877517375,3.113005656658466,-1.828578369662311,1.452320312578537,-0.1829797029495239,0.2474583089351654,-0.1321423798799515,0.1101211607456207,-0.07249855995178223,0.08816099166870117,2,0.5980304955139055,0.3967699167796407,0.4488160143543226,0.5324448686295992,-0.1142951175570488,-0.9929898977279663,0.03013368137180805,-22.28189086914062,-43.19859313964844,18.9573974609375,2
1596230614.724441,107,0,102946.907615375,3.113290542996829,-1.823543155916851,1.452494361081784,0.003965968266129494,-0.004941657185554504,-0.002247824100777507,0.1165419816970825,-0.01183891296386719,0.06879937648773193,2,0.5967967374123655,0.3982346061195962,0.4503592087616293,0.5314315544180128,-0.1142769381403923,-0.9930104613304138,0.02951429411768913,-22.21925354003906,-43.25175476074219,18.79568481445312,2
1596230614.746109,108,0,102946.937713375,3.054912959375922,-1.778595613241807,1.454867357045549,-0.3015635013580322,-0.7082517743110657,-0.03607362508773804,0.06733682751655579,0.05927324295043945,0.2110631465911865,2,0.5976562274724425,0.3933686457728836,0.4476889565401508,0.5363235024528681,-0.1131824851036072,-0.9932877421379089,0.02386371605098248,-22.16702270507812,-43.21078491210938,18.59149169921875,2
1596230614.786325,109,0,102946.967811375,2.984505820599747,-1.723417580422722,1.456689365585786,-0.2553020119667053,-0.3264132738113403,0.07682203501462936,0.1220717430114746,-0.005837321281433105,0.01273477077484131,2,0.598653268739341,0.3876458724262347,0.4447960002676609,0.5417578322375669,-0.1125367805361748,-0.993496835231781,0.01731011644005775,-21.69422149658203,-43.54330444335938,18.61331176757812,2
1596230614.806581,110,0,102946.997909375,2.900531270727219,-1.654276703943692,1.451883594686698,-0.4194454550743103,-0.619032621383667,0.280362993478775,0.01839742064476013,-0.09299731254577637,0.05902683734893799,2,0.6004767541203839,0.379965418148117,0.4438800843518466,0.5459162573962415,-0.1182207465171814,-0.992938220500946,0.00989210233092308,-21.55773162841797,-43.52955627441406,18.58248901367188,2
1596230614.841836,111,0,102947.028008375,2.775648650537903,-1.543349654053028,1.445387652599431,-0.472710520029068,-0.08425802737474442,0.1539763212203979,-0.02096113562583923,0.05942916870117188,0.1288996934890747,2,0.6005469764863745,0.3709811581102854,0.4446826927656998,0.551338078659052,-0.1250336170196533,-0.9921466112136841,-0.003432618686929345,-21.78689575195312,-43.71592712402344,18.25918579101562,2
1596230614.868473,112,0,102947.058106375,2.662682088247041,-1.429928991629362,1.439219580885016,-0.6250075697898865,0.01040884479880333,0.2322291880846024,0.06465953588485718,-0.04795455932617188,0.1918830871582031,2,0.5970166067152863,0.3665527087367171,0.4492110536696006,0.5544545969409201,-0.1298992484807968,-0.9913562536239624,-0.01842056587338448,-21.94080352783203,-43.6822509765625,17.81301879882812,2
1596230614.899476,113,0,102947.088204375,2.525859437603778,-1.295073468127405,1.424841463330168,-0.6275763511657715,-0.1480352282524109,0.4578633606433868,0.2865120470523834,0.05403363704681396,0.05128276348114014,2,0.5930264502167182,0.3585002742334519,0.4557233455234566,0.5586711986637758,-0.1399444341659546,-0.9893674850463867,-0.039594367146492,-22.25054931640625,-43.88081359863281,16.6134033203125,2
1596230614.926776,114,0,102947.118302375,2.440778171076236,-1.228665877926317,1.402451702396901,-0.8018324375152588,-1.142173528671265,0.5848134756088257,-0.2508285641670227,0.1112118363380432,-0.04643511772155762,2,0.5946226357812018,0.3439734110441615,0.4587536575173988,0.5636056513728583,-0.1578398942947388,-0.9858634471893311,-0.05621242523193359,-22.73970794677734,-43.85052490234375,16.35379028320312,2
1596230614.965717,115,0,102947.148401375,2.331461760312223,-1.154505168819858,1.387367100973634,-0.771781861782074,-0.6495728492736816,-0.1635235697031021,-0.4140841662883759,-0.08509773015975952,0.06258308887481689,2,0.5967858235698819,0.3270588168827467,0.4546661214063496,0.5745937837228441,-0.1668246686458588,-0.9832239747047424,-0.07375842332839966,-22.84824371337891,-44.24275207519531,15.94259643554688,2
1596230614.986841,116,0,102947.178499375,2.201651297546054,-1.032528915882708,1.380347437127502,-0.7174454927444458,0.03805165365338326,-0.01043382100760937,-0.0345231294631958,0.09604454040527344,-0.05089700222015381,2,0.5901344785413025,0.3212769281845913,0.4555979648747123,0.5839119346110708,-0.1625332683324814,-0.9819193482398987,-0.09704486280679703,-22.66063690185547,-44.3778076171875,15.46783447265625,2
1596230615.021653,117,0,102947.208597375,2.139940578172066,-0.9618909226206512,1.370620943538963,-0.4436635673046112,0.4614849388599396,0.07451173663139343,0.04448607563972473,0.1176909208297729,-0.161668062210083,2,0.5836001492527766,0.3202268759420602,0.4615081605914522,0.5864092798765386,-0.1631044447422028,-0.9800317287445068,-0.1137312278151512,-22.94499969482422,-44.80497741699219,14.26992797851562,2
1596230615.047036,118,0,102947.238695375,2.107354639796863,-0.9264921640292552,1.360572395324171,-0.4741446375846863,-0.03707437962293625,0.1956528425216675,-0.1425049304962158,-0.119949996471405,-0.00551992654800415,2,0.5801573025986612,0.3174061379096976,0.4655684971374976,0.588147050115796,-0.1668429523706436,-0.9779841899871826,-0.1253416985273361,-23.03110504150391,-44.89997863769531,13.7667236328125,2
1596230615.085147,119,0,102947.268794375,2.04696244900527,-0.8617177972884577,1.343071937737398,-0.6926854848861694,0.3811542093753815,0.1187990978360176,-0.04683133959770203,0.1345888376235962,0.07184070348739624,2,0.5733973107233856,0.3125937264910271,0.4721836263788316,0.592067114959237,-0.1713447123765945,-0.974182665348053,-0.1470013707876205,-23.14034271240234,-44.99503326416016,12.77542114257812,2
1596230615.107347,120,0,102947.298892375,1.993320399741759,-0.7954020682910461,1.330662177612046,-0.6727636456489563,0.4943364560604095,0.02011816389858723,0.1026367545127869,-0.01247692108154297,0.04195189476013184,2,0.5649450567544165,0.3124030218416292,0.4791665359066509,0.5946772371049944,-0.1698475927114487,-0.9713060855865479,-0.1664828658103943,-23.33112335205078,-45.05339813232422,12.14788818359375,2
1596230615.143287,121,0,102947.328990375,1.952885450495297,-0.7403051224082962,1.313110016628631,-0.4527354836463928,0.5013388395309448,0.308085709810257,0.298636794090271,-0.003020286560058594,-0.1721005439758301,2,0.5560616707678397,0.3110056206870623,0.4881659133991169,0.5964603790601679,-0.1718956530094147,-0.9669821858406067,-0.1881418377161026,-23.57868957519531,-45.36512756347656,10.60562133789062,2
1596230615.168942,122,0,102947.359088375,1.957178612845149,-0.7401026453810753,1.296371789372541,-0.3970442712306976,-0.2962251007556915,0.4488727152347565,0.03862631320953369,0.1306416988372803,-0.1948748826980591,2,0.5534068433534786,0.3060886476906943,0.4947740919813951,0.5960279004786218,-0.1827479898929596,-0.9625812768936157,-0.2001012116670609,-24.13591766357422,-45.14612579345703,10.12789916992188,2
1596230615.203286,123,0,102947.389187375,1.958700101613448,-0.7555389216972377,1.280173743591472,-0.3528120517730713,-0.3891347050666809,0.2478606104850769,-0.3286170959472656,-0.07974588871002197,-0.09950411319732666,2,0.5551124857280174,0.2959059416224334,0.4960277628504833,0.5985368311556879,-0.1964811980724335,-0.9580656886100769,-0.2085795998573303,-24.66734313964844,-45.07433319091797,9.711822509765625,2
1596230615.227714,124,0,102947.419285375,1.946408960593586,-0.7354907855847921,1.27306555370477,-0.05264862254261971,0.9065104722976685,-0.04245156422257423,-0.1019198894500732,0.134610652923584,-0.02125704288482666,2,0.5510881183336017,0.2958740109472402,0.5001088820665709,0.5988753591324235,-0.1968248188495636,-0.9560046195983887,-0.2175209075212479,-25.15312957763672,-45.01968383789062,9.04241943359375,2
1596230615.264003,125,0,102947.449383375,1.94816549450799,-0.7124235551869226,1.274132730658422,-0.04183585569262505,0.8635551929473877,0.0006709450390189886,-0.09963256120681763,0.02247059345245361,0.04897022247314453,2,0.5451518540482707,0.3036350752599752,0.5066241052117577,0.5949346438127735,-0.1910880953073502,-0.956317126750946,-0.2212303876876831,-25.19785308837891,-44.91275024414062,8.607574462890625,2
1596230615.287927,126,0,102947.479481375,1.934156547705587,-0.680667953117439,1.270132289274418,-0.222782701253891,-0.2814125120639801,0.01755657978355885,0.07178187370300293,-0.07000094652175903,-0.2517032623291016,2,0.5386843150468562,0.3077993701597317,0.5122972605778525,0.5938269185287544,-0.1863738894462585,-0.9551400542259216,-0.2301575094461441,-25.48394775390625,-45.0706787109375,7.8790283203125,2
1596230615.322861,127,0,102947.509580375,1.921967443146143,-0.6762877616890454,1.267254819493635,-0.1039241030812263,-0.1515999734401703,-0.124915137887001,-0.02689486742019653,0.1184625625610352,0.00832754373550415,2,0.5390406856663001,0.3047593034345019,0.5107307086125157,0.5964151319214229,-0.1870831400156021,-0.9542838931083679,-0.2331138104200363,-25.43349456787109,-45.30313873291016,7.740478515625,2
1596230615.348067,128,0,102947.539678375,1.912114538406191,-0.6679077489403051,1.266167453775968,-0.1658967286348343,0.1477886289358139,0.09165679663419724,-0.00874483585357666,-0.08125382661819458,0.070701003074646,2,0.5382505291524946,0.3042078225901453,0.510377899705623,0.5977109169344633,-0.1857656687498093,-0.9539583325386047,-0.2354879379272461,-25.20629119873047,-45.33625030517578,7.77569580078125,2
1596230615.385499,129,0,102947.569776375,1.908428556634659,-0.6578395155912329,1.257162442232382,-0.2092129290103912,0.1002163290977478,0.1020158380270004,-0.07366630434989929,0.0529320240020752,-0.07624995708465576,2,0.5349497637667353,0.3029215187895254,0.5147111886137338,0.5976117665113787,-0.1886303275823593,-0.9512187242507935,-0.2441346049308777,-25.24318695068359,-45.34317779541016,7.298980712890625,2
1596230615.40875,130,0,102947.599874375,1.905821658968057,-0.6527820373016902,1.254106736640329,-0.02952197939157486,0.1697385311126709,0.009139136411249638,-0.03084969520568848,0.05563396215438843,-0.07189404964447021,2,0.5335989005459472,0.302614694664905,0.5162063518905622,0.5976851745778806,-0.1891576498746872,-0.9502715468406677,-0.2473931163549423,-25.40345001220703,-45.10646057128906,7.2027587890625,2
1596230615.44617,131,0,102947.629973375,1.909569824829091,-0.6463213705427374,1.252863225431401,-0.01871994137763977,0.4468421936035156,0.1418692469596863,0.01887625455856323,-0.01989370584487915,0.01418876647949219,2,0.5311755128872571,0.3050833589563746,0.519419458572025,0.5958022213015947,-0.1882671117782593,-0.9498835802078247,-0.2495534420013428,-25.55877685546875,-45.12083435058594,6.666107177734375,2
1596230615.469788,132,0,102947.660071375,1.915788484746918,-0.6413982533078509,1.250767723214991,-0.04754843935370445,0.1421455889940262,-0.01128980610519648,-0.09092119336128235,0.04444289207458496,-0.04292082786560059,2,0.5286343382258146,0.3074248047488787,0.5232034829313497,0.593543511477404,-0.188226655125618,-0.949226438999176,-0.2520714402198792,-25.594970703125,-44.79867553710938,6.52337646484375,2
1596230615.50255,133,0,102947.690169375,1.915521133784642,-0.6388527983552044,1.24851822991392,0.02693933993577957,0.09259616583585739,0.09642957895994186,-0.04014170169830322,0.006231784820556641,-0.0652194619178772,2,0.5276798658532673,0.3072820931208693,0.5244723189117961,0.593346912693222,-0.1888571977615356,-0.9485163688659668,-0.2542633414268494,-25.77946472167969,-44.92327117919922,6.428131103515625,2
1596230615.528736,134,0,102947.720267375,1.922173423413418,-0.6359669585056245,1.247565847570712,-0.008676362223923206,0.4697666764259338,0.05959088727831841,0.0631730854511261,0.002568840980529785,0.03399914503097534,2,0.5257558518274885,0.3095381477814061,0.527488164029504,0.5912048770409201,-0.1886590570211411,-0.9482142925262451,-0.2555338442325592,-25.95397186279297,-45.15683746337891,6.3289794921875,2
1596230615.564995,135,0,102947.750366375,1.929757694888759,-0.633706169767539,1.245925397811093,-0.01960480771958828,0.1444522440433502,0.1188104972243309,-0.05403327941894531,0.01153016090393066,0.007472515106201172,2,0.5237413633676878,0.3115903220195899,0.5308111341133306,0.5889364013985261,-0.1890017241239548,-0.9476919174194336,-0.257212907075882,-26.14459228515625,-45.01712036132812,6.15240478515625,2
1596230615.58894,136,0,102947.780464375,1.932269862296967,-0.6337792960466728,1.243359470739803,-0.03017514012753963,0.09456142783164978,0.009943611919879913,0.0206870436668396,0.03067046403884888,-0.0009168386459350586,2,0.5229976308771642,0.3112790904520743,0.532300594842235,0.5884173059109969,-0.1904598921537399,-0.9468697905540466,-0.2591575980186462,-26.37419128417969,-44.84808349609375,5.7757568359375,2
1596230615.622076,137,0,102947.810562375,1.93568157934231,-0.6294146672040758,1.243857062623632,0.03216933086514473,0.2904568910598755,0.1114437282085419,0.05883875489234924,0.008508861064910889,0.004694938659667969,2,0.521372872101757,0.3136358977959179,0.5342935599832765,0.5867992686006254,-0.189049705862999,-0.947029709815979,-0.2596057057380676,-26.33774566650391,-45.05461120605469,5.831512451171875,2
1596230615.649061,138,0,102947.840660375,1.94518542181885,-0.6330077476153563,1.240504918164732,-0.05318738147616386,0.04226731508970261,0.09578859806060791,-0.07860371470451355,-0.0017281174659729,-0.05274355411529541,2,0.5203620371380262,0.3138184341747962,0.5371459004906711,0.5849920441390208,-0.191858097910881,-0.9459478855133057,-0.2614826858043671,-26.52122497558594,-44.72698974609375,5.7958984375,2
1596230615.686599,139,0,102947.870759375,1.945611103757341,-0.6332226310914589,1.240315167522428,0.06549461930990219,0.008580360561609268,-0.0395394079387188,-0.001458525657653809,0.08301788568496704,-0.05138742923736572,2,0.5203258347818838,0.3137960179925928,0.5372713480014638,0.5849210800784973,-0.192020520567894,-0.9458863139152527,-0.2615861594676971,-26.82859039306641,-44.85527038574219,5.512115478515625,2
1596230615.709325,140,0,102947.900857375,1.948695340677848,-0.6351341535210195,1.243760303793834,0.1166560053825378,0.02807539328932762,-0.07302870601415634,-0.007567137479782104,0.0374990701675415,0.02117127180099487,2,0.520844095285063,0.3153166975841235,0.5366420369719079,0.5842192110700382,-0.1905855238437653,-0.946998655796051,-0.2585936188697815,-26.59925079345703,-44.91179656982422,5.64495849609375,2
1596230615.744837,141,0,102947.930955375,1.943525483859218,-0.633220925653415,1.248393772186716,0.1221082210540771,-0.3204591274261475,-0.1887116730213165,-0.03562051057815552,0.02416574954986572,0.02303367853164673,2,0.52180575310412,0.3162431079419042,0.5342377345894486,0.5850634159216296,-0.1874921023845673,-0.9484769105911255,-0.2554180920124054,-26.44738006591797,-44.86119842529297,5.954498291015625,2
1596230615.76944,142,0,102947.961053375,1.936304993601406,-0.6405847216626838,1.250562093352952,-0.03832421079277992,-0.4926334917545319,-0.06764473021030426,0.02375021576881409,-0.03579419851303101,0.05395203828811646,2,0.5252083598544057,0.3129946260103708,0.52954024071311,0.5880287311184453,-0.1881382614374161,-0.94916170835495,-0.2523810863494873,-26.3779296875,-44.7645263671875,6.37615966796875,2
1596230615.803261,143,0,102947.991152375,1.928627062590824,-0.6427579418441811,1.24991874355946,-0.08075511455535889,-0.07398185878992081,-0.007178740575909615,-0.01322603225708008,0.005824923515319824,0.007248759269714355,2,0.5268864859473139,0.3100974521601856,0.5269003459370738,0.5904289645012237,-0.1890523135662079,-0.9489589929580688,-0.252460390329361,-25.96730041503906,-44.97899627685547,6.394317626953125,2
