loggingTime,loggingSample,identifierForVendor,motionTimestamp_sinceReboot,motionYaw,motionRoll,motionPitch,motionRotationRateX,motionRotationRateY,motionRotationRateZ,motionUserAccelerationX,motionUserAccelerationY,motionUserAccelerationZ,motionAttitudeReferenceFrame,motionQuaternionX,motionQuaternionY,motionQuaternionZ,motionQuaternionW,motionGravityX,motionGravityY,motionGravityZ,motionMagneticFieldX,motionMagneticFieldY,motionMagneticFieldZ,motionMagneticFieldCalibrationAccuracy
1596230390.129221,1,0,102722.311044125,0.8586713521670494,0.564788926624617,1.104738014955896,0.01913665607571602,0.06233207136392593,-0.04570256918668747,0.06812550127506256,-0.0202828049659729,-0.05484730005264282,2,-0.3594426660039867,-0.4254524967794837,-0.4732678321121638,-0.6825017989717719,0.2405188828706741,-0.8933464884757996,-0.3795822858810425,-4.347969055175781,-49.88819885253906,-1.37103271484375,2
1596230390.150613,2,0,102722.341142125,0.8582576528631809,0.564258006407012,1.107596102478328,0.0701119676232338,-0.1142686828970909,0.09465371817350388,0.03454340994358063,0.05914032459259033,-0.01270186901092529,2,-0.3608052169608608,-0.4254929377101615,-0.4730391210684297,-0.6819158153943576,0.2389507591724396,-0.8946271538734436,-0.3775507211685181,-4.419769287109375,-50.13478851318359,-1.1368408203125,2
1596230390.180727,3,0,102722.371240125,0.8565828219921884,0.5617548087200956,1.110848975641472,0.1030728444457054,-0.06729387491941452,-0.003574853297322989,-0.02743957936763763,-0.007720232009887695,0.007728695869445801,2,-0.3630595396382321,-0.4246719468347383,-0.4720222666396764,-0.6819358613829174,0.2364536821842194,-0.8960758447647095,-0.3756830096244812,-4.3828125,-50.04071044921875,-1.15972900390625,2
1596230390.21071,4,0,102722.4013389167,0.8538431006711623,0.564399071336394,1.111235010258491,0.04374397173523903,0.08431538939476013,-0.003745181020349264,-0.05755499005317688,-0.00943833589553833,0.02689278125762939,2,-0.3631728874580298,-0.4251157942926764,-0.4715691839594461,-0.6819123407779237,0.2372611314058304,-0.8962471485137939,-0.3747640252113342,-4.295547485351562,-50.09261322021484,-0.830413818359375,2
1596230390.240889,5,0,102722.4314369167,0.8527916869012243,0.5683379000161644,1.112389811095128,0.02656520530581474,0.09389762580394745,0.0001463689841330051,-0.0258612334728241,0.02767050266265869,0.001361548900604248,2,-0.3629315767919908,-0.4263843441417873,-0.4719295916246274,-0.6809988944714509,0.2381782382726669,-0.8967587947845459,-0.3729541301727295,-4.291923522949219,-49.89921569824219,-0.941131591796875,2
1596230390.270879,6,0,102722.4615349167,0.8523297921747691,0.5720314662169667,1.114000968105701,0.07837238907814026,0.1282746195793152,0.0545361191034317,-0.008808210492134094,0.004405319690704346,0.01397514343261719,2,-0.3628052962256239,-0.427719701238864,-0.4724489704819653,-0.67986758814279,0.2387715429067612,-0.8974705934524536,-0.3708563446998596,-4.381500244140625,-50.15253448486328,-0.829498291015625,2
1596230390.301169,7,0,102722.4916329167,0.8542561234980209,0.5738554390329301,1.117416672687484,0.08161276578903198,0.07111514359712601,0.08362629264593124,-0.01215408742427826,0.006049036979675293,0.01029610633850098,2,-0.3633323886748878,-0.4290310377977539,-0.4734477529415743,-0.6780628198916901,0.2377821803092957,-0.8989719152450562,-0.367843896150589,-4.490608215332031,-50.0748291015625,-0.659576416015625,2
1596230390.331122,8,0,102722.5217309167,0.8563304537428874,0.5735004312854299,1.120453826876467,0.04777100682258606,0.03856930136680603,0.05869746953248978,-0.0007990747690200806,-0.00981903076171875,0.01623427867889404,2,-0.3641890825950279,-0.4295925375861392,-0.474096518329635,-0.6767932438131707,0.2361690998077393,-0.9002980589866638,-0.3656331300735474,-4.805854797363281,-50.09625244140625,-0.610565185546875,2
1596230390.361315,9,0,102722.5518289167,0.8564111396360586,0.5749148681697981,1.121924298705847,0.04993293806910515,0.07093015313148499,0.01469946838915348,0.0185566246509552,0.0115504264831543,0.01922398805618286,2,-0.3644256046387929,-0.4302329486368566,-0.4743862444726956,-0.6760556428363221,0.235965833067894,-0.9009371399879456,-0.3641871809959412,-4.823654174804688,-50.08173370361328,-0.558197021484375,2
1596230390.391317,10,0,102722.5819269167,0.8549068088688961,0.5783883888749553,1.123041374412962,0.03832551091909409,6.490759551525116e-05,-0.004056801553815603,0.0089530348777771,-0.004926323890686035,0.03064364194869995,2,-0.3643731306675795,-0.4312436062275634,-0.474514996378878,-0.675349240541868,0.2366790473461151,-0.9014213681221008,-0.3625223338603973,-4.654106140136719,-50.14340209960938,-0.579559326171875,2
1596230390.421588,11,0,102722.6120249167,0.855579860491185,0.5730977480355781,1.124528820203296,0.0293220654129982,-0.237807959318161,0.07892493903636932,0.04328431189060211,-0.01913654804229736,-0.02923214435577393,2,-0.366078327841076,-0.4297270919602836,-0.4737812054205181,-0.6759087542051013,0.234030544757843,-0.902064323425293,-0.3626425564289093,-4.634346008300781,-50.12897491455078,-0.44744873046875,2
1596230390.451528,12,0,102722.6421239167,0.8576072706073912,0.5644560348508121,1.126244696422949,0.02915120124816895,-0.3274771571159363,-0.02346567623317242,0.0628427118062973,0.05278033018112183,0.06399142742156982,2,-0.3683760524790483,-0.427349488762222,-0.4728829279446988,-0.6767961985345079,0.2300595194101334,-0.9028035998344421,-0.3633430004119873,-4.785995483398438,-50.29314422607422,-0.28009033203125,2
1596230390.481713,13,0,102722.6722219167,0.8455531496716716,0.5612107730977085,1.121464885255399,-0.1959235668182373,-0.554193377494812,-0.2856956720352173,-0.06693299114704132,-0.0600772500038147,-0.06587791442871094,2,-0.3697883056202919,-0.4235423982204793,-0.4681839817405316,-0.6816686201947459,0.2311732023954391,-0.9007377028465271,-0.3677369058132172,-4.820465087890625,-50.13525390625,-0.282135009765625,2
1596230390.511741,14,0,102722.7023199167,0.8564618453033611,0.5428378495895136,1.124992115974531,0.1461322456598282,0.03635820746421814,0.5935533046722412,0.06800824403762817,-0.01395940780639648,-0.2346835136413574,2,-0.3732049295438841,-0.4196647234355348,-0.468487742191026,-0.6819961324834078,0.2227355688810349,-0.9022641777992249,-0.3691991865634918,-4.629623413085938,-50.23365020751953,-0.35833740234375,2
1596230390.541923,15,0,102722.7324179167,0.8855993499836795,0.5161449692562919,1.138381452624163,0.2078912556171417,-0.3426869809627533,0.3735406696796417,0.03462450206279755,0.0929761528968811,-0.242023229598999,2,-0.37873282314443,-0.4175228897004414,-0.4732484713994479,-0.6769577915689928,0.2068212926387787,-0.9079564213752747,-0.3644721806049347,-5.278305053710938,-50.05351257324219,-0.303985595703125,2
1596230390.572268,16,0,102722.7625159167,0.8832113776872595,0.5109956481200354,1.148311275344177,0.5642387270927429,0.2176847159862518,-0.1242914646863937,-0.31883904337883,0.2591514587402344,-0.2662111520767212,2,-0.3843886928026253,-0.4164375105832194,-0.4713051331173599,-0.6757932182665755,0.2005225569009781,-0.9120728373527527,-0.3576502799987793,-5.962135314941406,-50.15050506591797,0.039031982421875,2
1596230390.601986,17,0,102722.7926139167,0.8260822975295347,0.5778001491556447,1.163354998189546,0.8779354095458984,0.4008249938488007,-0.6762520670890808,-0.2783998250961304,-0.01665306091308594,0.09547942876815796,2,-0.3868171708923753,-0.4294241890835003,-0.4648517450241847,-0.6707310347526036,0.2164309918880463,-0.9181377291679382,-0.3319346904754639,-5.839065551757812,-50.01765441894531,0.725738525390625,2
1596230390.63212,18,0,102722.8227119167,0.7500358161885664,0.6453270611419294,1.165096641089165,0.3465100824832916,-0.6269022822380066,-0.6155052781105042,0.2752477526664734,-0.2278079986572266,0.3787549734115601,2,-0.3885097008603796,-0.4375066033617254,-0.4524160526867346,-0.6730288339303065,0.2373730689287186,-0.9188264608383179,-0.3152963817119598,-4.442878723144531,-50.24519348144531,2.12078857421875,2
1596230390.662299,19,0,102722.8528099167,0.7434652746193628,0.6289602050133256,1.171994503545698,0.2426987290382385,-0.5765442252159119,0.7170842289924622,0.1022733300924301,0.03451186418533325,0.1702176332473755,2,-0.3963786397258593,-0.4311389634679759,-0.4471683749762926,-0.6760499326476614,0.2284469455480576,-0.9215269088745117,-0.3140063285827637,-4.123260498046875,-50.20502471923828,2.94384765625,2
1596230390.692315,20,0,102722.8829079167,0.7747027931590461,0.5969272266605833,1.190889662743376,0.1479638814926147,0.285597026348114,0.2706301212310791,-0.3926825821399689,-0.02782905101776123,0.1085866093635559,2,-0.4044052205085726,-0.4279068427180023,-0.4516105943765875,-0.6703730529343408,0.2084470689296722,-0.928699254989624,-0.3067043125629425,-4.859588623046875,-50.17511749267578,2.93359375,2
1596230390.72256,21,0,102722.9130059167,0.7484551405289932,0.63762335170065,1.183307649059786,-0.004552286118268967,0.6676729321479797,-0.8873513340950012,-0.1507159769535065,0.04868561029434204,-0.09917634725570679,2,-0.3978715198421297,-0.4357622493795047,-0.4508434446296581,-0.669738576687479,0.2249380499124527,-0.9258609414100647,-0.3036190271377563,-4.688339233398438,-50.31680297851562,3.30963134765625,2
1596230390.752461,22,0,102722.9431039167,0.6951417462777022,0.6993161482453932,1.173752414870685,0.3209266662597656,0.09660932421684265,-0.3558975756168365,0.3356181681156158,0.07533276081085205,-0.2248288989067078,2,-0.3919826292472505,-0.4454038136285973,-0.4448216687134597,-0.6708939994004969,0.2489127516746521,-0.9222081303596497,-0.2959301173686981,-4.1085205078125,-50.32253265380859,3.2740478515625,2
1596230390.782981,23,0,102722.9732019167,0.6808194648254434,0.7067688097130098,1.184105413288248,0.4054375886917114,-0.515623927116394,0.3967224657535553,0.3024867177009583,-0.02991253137588501,-0.0330275297164917,2,-0.3976576636418349,-0.445503110582635,-0.4419775825979905,-0.6693663205528348,0.2448980063199997,-0.92616206407547,-0.2867907285690308,-3.584175109863281,-50.0316162109375,3.85565185546875,2
1596230390.812724,24,0,102723.0032999167,0.6829711021229411,0.6832042022210226,1.200752380336754,0.4217639863491058,-0.69499272108078,0.2314659655094147,-0.1224533021450043,-0.02403032779693604,0.05107951164245605,2,-0.4090055184722501,-0.4387169385509874,-0.4386866157174589,-0.669175512559401,0.228306770324707,-0.932311475276947,-0.2804838716983795,-4.023979187011719,-50.03182983398438,4.302001953125,2
1596230390.842892,25,0,102723.0333979167,0.6678169753308349,0.6908766826744027,1.21061469147421,0.211373507976532,0.2545224726200104,-0.03300495445728302,-0.3875986635684967,0.04527384042739868,0.1409610509872437,2,-0.4145726479822976,-0.4385400289956194,-0.4356194396231227,-0.6678681072244471,0.2245819866657257,-0.9358327984809875,-0.2716243267059326,-4.29779052734375,-50.070556640625,5.00982666015625,2
1596230390.872928,26,0,102723.0634959167,0.6415481203827779,0.7364388198708685,1.209231357486345,0.21957927942276,0.978376567363739,-0.5381009578704834,-0.221751943230629,0.004861831665039062,0.01314514875411987,2,-0.4099169481473447,-0.448254422266892,-0.4361948111535759,-0.6639050614947575,0.2375894635915756,-0.935344398021698,-0.2620721459388733,-4.397346496582031,-50.16820526123047,5.230560302734375,2
1596230390.903078,27,0,102723.0935939167,0.5925363831870966,0.8047122282659517,1.202736480756535,0.2954066693782806,0.3650226891040802,-0.4933428764343262,0.0001361370086669922,0.03437316417694092,-0.2186022996902466,2,-0.4036403702732082,-0.4608085122530323,-0.4334053948362351,-0.6609762414154086,0.2592871189117432,-0.9330272078514099,-0.2494599372148514,-3.318878173828125,-49.80528259277344,5.680328369140625,2
1596230390.933095,28,0,102723.1236919167,0.5372035512126057,0.8560432739975116,1.203251481966918,0.6679090857505798,-0.2364757359027863,-0.363513708114624,0.07378339767456055,0.1078027486801147,-0.3481107354164124,2,-0.4056495196681502,-0.4665747780954692,-0.4255497145293963,-0.6608054533955626,0.2713822424411774,-0.9332123398780823,-0.2355128824710846,-2.779335021972656,-49.80042266845703,5.9466552734375,2
1596230390.96331,29,0,102723.1537899167,0.4716362131615917,0.914767194609749,1.207749649837676,0.7995249032974243,0.08037438988685608,-0.5006550550460815,0.006889402866363525,0.07905125617980957,-0.1473240256309509,2,-0.4104407649140683,-0.4724722413658244,-0.4163671022502176,-0.659504934888574,0.2814074754714966,-0.934819221496582,-0.2166167199611664,-2.031898498535156,-49.99082183837891,7.231964111328125,2
1596230390.993251,30,0,102723.1838879167,0.3962842761687679,0.9880996538342913,1.207803333949971,0.593810498714447,0.1794368028640747,-0.3356233537197113,-0.05739960074424744,-0.0144655704498291,0.0002873539924621582,2,-0.4133372798516184,-0.4811005951783364,-0.4066624125290286,-0.6575105225170934,0.2964799404144287,-0.9348382949829102,-0.1953890174627304,-1.765708923339844,-49.78805541992188,7.87384033203125,2
1596230391.023446,31,0,102723.2139869167,0.3353665099037931,1.059434550635705,1.214888605591038,0.8155636191368103,0.5666915774345398,-0.1540775299072266,-0.1204301714897156,0.04221391677856445,0.05672430992126465,2,-0.4163923934155461,-0.4912839687902325,-0.4026198613631853,-0.650503262289635,0.3038679659366608,-0.9373306035995483,-0.1705148667097092,-1.046157836914062,-49.42632293701172,9.2479248046875,2
1596230391.053608,32,0,102723.2440849167,0.2716412084500371,1.140742093220588,1.215471040499702,0.5254829525947571,1.023292899131775,-0.4474963247776031,0.1502863764762878,0.1036989688873291,0.1535874605178833,2,-0.4161737994783195,-0.5042590159069757,-0.3990365371477139,-0.6428778438685228,0.3162167966365814,-0.9375333786010742,-0.1450444310903549,-0.770111083984375,-49.27674102783203,9.917236328125,2
1596230391.083747,33,0,102723.2741829167,0.2190091965355623,1.220775121703398,1.214986848852044,0.6889516711235046,0.7288910150527954,0.1046715825796127,0.2330136299133301,-0.03772222995758057,-0.1024990677833557,2,-0.4135025028835683,-0.5189298447860785,-0.398750147133569,-0.6330289506666413,0.3272268772125244,-0.9373648166656494,-0.1194549947977066,-0.5897979736328125,-49.18862152099609,11.05850219726562,2
1596230391.113694,34,0,102723.3042809167,0.1688613022681782,1.280271419666288,1.232701842233647,0.6867140531539917,0.1838326156139374,0.4634328484535217,0.05750486254692078,-0.10783451795578,0.01715213060379028,2,-0.4208599602710111,-0.5247568044780615,-0.399237594601541,-0.6229900431751109,0.317790299654007,-0.9433884024620056,-0.09501437842845917,-1.238960266113281,-48.80841827392578,12.50601196289062,2
1596230391.143909,35,0,102723.3343789167,0.1271457066519261,1.331029050807523,1.243311146238321,0.3142870664596558,0.5309116244316101,0.02521401271224022,0.1140234768390656,0.1400020122528076,0.2737082242965698,2,-0.425287003830249,-0.5300351381798118,-0.399496833313412,-0.6153015935529429,0.3124613165855408,-0.9468542337417603,-0.0763874351978302,-1.699020385742188,-48.6473388671875,12.9888916015625,2
1596230391.173949,36,0,102723.3644769167,0.09867745723379912,1.366170213799582,1.249207448414994,0.5625616908073425,0.01672519743442535,0.2513090074062347,0.1660868227481842,-0.04000747203826904,-0.09584170579910278,2,-0.4277652043147855,-0.5337636003916383,-0.3996854598618076,-0.610217131584148,0.3094803094863892,-0.9487344026565552,-0.06422669440507889,-1.936943054199219,-48.59761810302734,13.80291748046875,2
1596230391.204342,37,0,102723.3945741667,0.03077168937835052,1.425718457025655,1.262023611836569,0.6958093047142029,-0.408192366361618,0.3370973467826843,-0.05878958106040955,0.01747101545333862,0.09811151027679443,2,-0.4381262155227123,-0.5348634278134714,-0.3951870329756751,-0.6048086664652643,0.300696462392807,-0.9527072310447693,-0.04393306747078896,-2.260154724121094,-48.47261810302734,14.34738159179688,2
1596230391.234119,38,0,102723.4246721667,-0.02118256065099713,1.455003659334397,1.274236069698083,0.4526793360710144,-0.5587626695632935,0.1876009553670883,-0.3389062285423279,-0.06497514247894287,0.2682073712348938,2,-0.4499164746874338,-0.5298054225243543,-0.389219586907769,-0.6044744793522208,0.2902750968933105,-0.9563473463058472,-0.03376276046037674,-2.448417663574219,-48.03413391113281,15.509765625,2
1596230391.264257,39,0,102723.4547701667,-0.06296929601622876,1.492886729180718,1.27365475594134,0.5112568736076355,0.2273821085691452,-0.194357231259346,-0.2598034739494324,0.0428694486618042,0.1190367341041565,2,-0.4535052932138519,-0.5319200993194846,-0.3850053369001902,-0.6026315048575978,0.291899710893631,-0.956177294254303,-0.0227879136800766,-2.289779663085938,-48.02797698974609,15.8236083984375,2
1596230391.294222,40,0,102723.4848681667,-0.1145821041295083,1.551370078156613,1.268711945725985,0.5290923714637756,0.3900192975997925,-0.1409870833158493,0.01519012451171875,0.02172207832336426,-0.009592652320861816,2,-0.4547230879300197,-0.5388295963160094,-0.3813749889566678,-0.5978651505639533,0.2974548637866974,-0.9547184109687805,-0.005779158789664507,-2.17010498046875,-47.43640899658203,16.58428955078125,2
1596230391.324506,41,0,102723.5149661667,-0.1726826058089254,1.614768082862132,1.269378801010341,0.4038057923316956,-0.02506657317280769,0.1586281210184097,-0.1032228469848633,-0.08798551559448242,0.1272813081741333,2,-0.458586940383454,-0.544263662660817,-0.378772885641981,-0.5916129942237512,0.2965863049030304,-0.9549165964126587,0.01304983254522085,-2.328010559082031,-47.209716796875,17.431640625,2
1596230391.354516,42,0,102723.5450641667,-0.1946030223932549,1.634294013325673,1.269781180751252,0.1716737151145935,0.2210683226585388,-0.1694411933422089,-0.01632231473922729,0.1027479767799377,-0.01970458030700684,2,-0.4609698774697794,-0.5448978371923203,-0.3769085955975766,-0.5903668224787932,0.2958921790122986,-0.9550359845161438,0.01881376095116138,-2.673744201660156,-47.31197357177734,18.10586547851562,2
1596230391.384615,43,0,102723.5751621667,-0.2361636643564848,1.67223689752077,1.259824153904132,0.7832069993019104,-0.4324264824390411,-0.3876463174819946,-0.03023669123649597,0.02085006237030029,-0.281767725944519,2,-0.4627759732481415,-0.5489366033911968,-0.370260675936272,-0.5894183212414934,0.3044110834598541,-0.9520365595817566,0.0309859924018383,-2.311660766601562,-47.17849731445312,18.38616943359375,2
1596230391.414684,44,0,102723.6052601667,-0.2882567144642315,1.7057954887384,1.246756352441358,0.2287064790725708,-0.3503382205963135,-0.2244480401277542,0.01851958036422729,0.04633235931396484,0.3527488708496094,2,-0.4678646294850097,-0.5500265569612527,-0.3584297518820481,-0.591693659573767,0.3155012428760529,-0.9479568600654602,0.04285304993391037,-1.153556823730469,-46.44274139404297,19.3255615234375,2
1596230391.444845,45,0,102723.6353581667,-0.3004387635902461,1.718347431481642,1.244402599383028,0.09757975488901138,0.4997411966323853,-0.04539668560028076,-0.2272107005119324,-0.08155143260955811,0.3387932777404785,2,-0.4684305975359399,-0.5514903527905242,-0.3569863939536921,-0.5907552527336328,0.3171449601650238,-0.9472047686576843,0.04713766649365425,-1.021064758300781,-46.41741943359375,19.49737548828125,2
1596230391.475096,46,0,102723.6654561667,-0.2888282079839586,1.729119386262629,1.236249485390647,-0.2943340837955475,0.7795699238777161,-0.4916301965713501,-0.1541356444358826,-0.01752156019210815,0.3587132692337036,2,-0.4614021350823991,-0.5594565257497749,-0.360191236854695,-0.5868379013732656,0.3242345750331879,-0.9445592164993286,0.05176706984639168,-1.166419982910156,-46.4561767578125,19.5849609375,2
1596230391.505053,47,0,102723.6955541667,-0.2416569630365471,1.709552140534479,1.221570681148043,-0.5478535890579224,1.216776847839355,-0.6013221740722656,0.1914766430854797,0.2223634123802185,0.1723881959915161,2,-0.4481939705454214,-0.5681417816153651,-0.3647032274040725,-0.5859423679881316,0.3388811051845551,-0.9396379590034485,0.04732583835721016,-0.920318603515625,-46.62107849121094,19.30624389648438,2
1596230391.535052,48,0,102723.7256521667,-0.1914070546835192,1.70454109703133,1.209533025682418,-0.4836618304252625,1.080424547195435,-0.2358858436346054,0.3270127773284912,-0.08871924877166748,-0.03673553466796875,2,-0.4317380692060017,-0.5806619312002708,-0.3743016087046288,-0.5799415135549583,0.3502994179725647,-0.9354510307312012,0.04713207855820656,-0.846343994140625,-47.10887908935547,18.53683471679688,2
1596230391.565228,49,0,102723.7557501667,-0.1402497110713455,1.670110938163825,1.21195155269767,-0.8550678491592407,0.2080609798431396,0.1291218400001526,0.09806427359580994,-0.2280077934265137,0.09448695182800293,2,-0.424010648975257,-0.581055583178279,-0.3825477813444562,-0.5798676380306264,0.3494620025157928,-0.9363031387329102,0.03482124209403992,-1.177070617675781,-47.44367980957031,17.14166259765625,2
1596230391.595221,50,0,102723.7858481667,-0.04514926454126592,1.597705596068243,1.216768412220198,-1.212001919746399,1.032214641571045,0.01740821823477745,-0.09387221932411194,0.3021842241287231,0.3209958076477051,2,-0.4118383425349627,-0.5788376681339593,-0.3965181066555358,-0.5814717224637789,0.3465527594089508,-0.9379839301109314,0.00932773295789957,-1.304664611816406,-47.55036926269531,16.40899658203125,2
1596230391.625482,51,0,102723.8159461667,0.06342880742454637,1.537897168327849,1.210284393094314,-1.421493053436279,1.457837820053101,-0.5112287998199463,-0.1203645467758179,-0.1843670606613159,0.2267637252807617,2,-0.3904806165398384,-0.5845710346491844,-0.4141291835808377,-0.5781855618705729,0.3525622189044952,-0.9357163310050964,-0.01160318683832884,-1.785476684570312,-48.38186645507812,14.13381958007812,2
1596230391.655521,52,0,102723.8460441667,0.2176928944698952,1.437471227513113,1.185020642932842,-2.63715672492981,1.736243724822998,-0.6657713055610657,-0.01127269864082336,-0.136771559715271,0.3561873435974121,2,-0.358485808535387,-0.5886242776789984,-0.4333467735031484,-0.5807063567531608,0.3729383945465088,-0.9265068173408508,-0.05001876875758171,-1.748283386230469,-48.51656341552734,12.4560546875,2
1596230391.685621,53,0,102723.8761421667,0.4362514310023641,1.306531868354488,1.149745198474143,-3.109392642974854,3.054080724716187,-0.708953857421875,-0.4362659752368927,-0.2982528805732727,0.1239189505577087,2,-0.3111615652584842,-0.5914387787195536,-0.4668603043242872,-0.5791545152187439,0.3945309221744537,-0.9126598238945007,-0.1067573055624962,-1.430946350097656,-49.66436767578125,7.452972412109375,2
1596230391.715784,54,0,102723.9062401667,0.6841361775901993,1.202847100442011,1.064624745222787,-6.150747299194336,5.601284980773926,-2.752015590667725,-0.6835786104202271,-0.9321148991584778,0.1526831984519958,2,-0.2306922476298089,-0.5996527409650113,-0.5088389483608334,-0.5729575149751853,0.4523806869983673,-0.8746070265769958,-0.174395352602005,-0.6871337890625,-49.96028900146484,3.948150634765625,2
1596230391.745833,55,0,102723.9363381667,0.9796839377887151,1.195402288495875,0.8833839777326563,-8.733303070068359,9.170049667358398,-3.658647298812866,-0.6936378479003906,-0.8311153650283813,0.7542088031768799,2,-0.0724534712729982,-0.6151642143934969,-0.5638624517166639,-0.5462441027742859,0.5903520584106445,-0.772890567779541,-0.2326469719409943,5.664649963378906,-48.73139953613281,-7.0498046875,2
1596230391.775984,56,0,102723.9664361667,1.286700124665306,1.268619708519169,0.7031549123523132,-8.2138671875,10.09280681610107,-2.776779651641846,-0.5795930624008179,0.5929802060127258,1.031454205513,2,0.1118178490659609,-0.6115485870383065,-0.6169224780877779,-0.4826092313292515,0.728243887424469,-0.6466274857521057,-0.227010190486908,10.80451965332031,-46.20626831054688,-13.03018188476562,2
1596230391.806044,57,0,102723.9965341667,1.522882828442924,1.417756851050066,0.5799835134898759,-6.098068237304688,9.34218692779541,-2.381678819656372,-0.02176201343536377,0.9560629725456238,0.881256103515625,2,0.2732858494293566,-0.6012967706382022,-0.6366186989255171,-0.3980875513139387,0.8266952633857727,-0.5480101704597473,-0.1275140792131424,21.973876953125,-39.04636383056641,-18.80877685546875,2
1596230391.836051,58,0,102724.0266321667,1.712169260323453,1.595004148350252,0.4871936668975928,-5.489270687103271,8.234620094299316,-3.067364931106567,0.6853569746017456,0.04735434055328369,0.4859244823455811,2,0.4141154958697483,-0.582411310230047,-0.6251100768367134,-0.3139153715139874,0.883391261100769,-0.4681479036808014,0.02138915657997131,27.30996704101562,-35.55345153808594,-18.23550415039062,2
1596230391.868432,59,0,102724.0567301667,1.914759142901353,1.691367161970286,0.4250991311770848,-6.397984027862549,4.244893550872803,-1.56037700176239,0.4234164953231812,-0.3766952753067017,0.06717765331268311,2,0.5176644121935625,-0.5355468873701383,-0.6209887921238562,-0.244102290417387,0.9043840169906616,-0.412411093711853,0.1095738261938095,36.08937072753906,-27.74526214599609,-15.204345703125,2
1596230391.896333,60,0,102724.0868281667,2.127542091951756,1.71385926253331,0.4456038191547164,-6.443056106567383,3.407926082611084,1.275552868843079,0.0219951868057251,0.3171985149383545,0.2776511907577515,2,0.5741613736678145,-0.4844225613826871,-0.6393367950148142,-0.1640788886981941,0.8931320309638977,-0.4310028254985809,0.1286530047655106,38.24571228027344,-24.73672485351562,-15.22784423828125,2
1596230391.926319,61,0,102724.1169261667,2.323219480447525,1.711929397470679,0.5520223855234544,-5.541354656219482,2.529190301895142,3.625207185745239,-0.4547625780105591,0.6118905544281006,-0.1471540927886963,2,0.5955610571413367,-0.4529820463395159,-0.6604975025189265,-0.06210675429363599,0.8429996967315674,-0.5244103074073792,0.1197714135050774,39.19871520996094,-23.05045318603516,-15.65847778320312,2
1596230391.956538,62,0,102724.1470241667,2.448735278852304,1.720084719318726,0.6592446546254452,-2.043568134307861,3.165173292160034,1.875322103500366,-0.3450288772583008,0.3782941102981567,-0.3726431131362915,2,0.602767539910196,-0.4421031975512003,-0.6639041564704631,0.02114551429217648,0.7816627621650696,-0.6125199794769287,0.1175678893923759,38.42178344726562,-24.05306243896484,-15.95257568359375,2
1596230391.986597,63,0,102724.1771221667,2.47736981647133,1.781904546591657,0.6835115220668578,-0.3375810384750366,1.330536484718323,0.2392505258321762,0.1638239622116089,0.1316527128219604,-0.3678044080734253,2,0.6239641606302883,-0.4380691535255088,-0.6449235151975237,0.05327021392164566,0.7581462264060974,-0.631519615650177,0.1624717116355896,38.64588928222656,-25.25355529785156,-13.4945068359375,2
1596230392.016682,64,0,102724.2072201667,2.487534105962231,1.802651699606404,0.7222752737869808,-0.726437509059906,1.140911817550659,2.056410789489746,0.1405185461044312,-0.2459174394607544,0.8722159862518311,2,0.6242536496951956,-0.4432957348973875,-0.6387767010684338,0.07589827737927546,0.7302266359329224,-0.661093533039093,0.1724074482917786,38.83033752441406,-25.35153198242188,-12.700439453125,2
1596230392.049176,65,0,102724.2373181667,2.502587780766673,1.813566163395808,0.7817051734838524,-1.021140813827515,0.2624095976352692,1.453746914863586,-0.04122644662857056,-0.04969203472137451,0.9469749927520752,2,0.6175382560313615,-0.4516096182312572,-0.635205645682997,0.1058725249217287,0.6889014840126038,-0.704490602016449,0.1706094890832901,37.5379638671875,-27.77783203125,-11.8370361328125,2
1596230392.07686,66,0,102724.2674161667,2.555204641277725,1.806752262125082,0.835947777302912,-1.742124915122986,2.626798391342163,1.198862075805664,0.1047111749649048,0.57444167137146,1.230855584144592,2,0.614562845174618,-0.4479751818428467,-0.6336770111192491,0.1417179369495576,0.6518964767456055,-0.7419323325157166,0.1567385047674179,36.60581970214844,-29.46096038818359,-12.21340942382812,2
1596230392.107782,67,0,102724.2975141667,2.576202114486974,1.899792600277072,0.8410878177645396,0.8622006177902222,3.306818723678589,-1.249013543128967,0.4809461832046509,0.7118052840232849,0.9461849927902222,2,0.6467613374074396,-0.435195577338068,-0.602622117891559,0.1707367025225388,0.6308976411819458,-0.7453687787055969,0.2153908312320709,36.79800415039062,-29.279052734375,-10.053955078125,2
1596230392.137015,68,0,102724.3276121667,2.59855652474395,1.929413994932093,0.7862965267596869,-1.40491247177124,-0.2566784024238586,-1.52723753452301,0.9186186790466309,0.1501061916351318,0.1260806322097778,2,0.6728366862400551,-0.4138471628580668,-0.5913638444456453,0.1622037268265656,0.6615274548530579,-0.7077417373657227,0.2479573637247086,39.19094848632812,-27.39730072021484,-6.594024658203125,2
1596230392.168948,69,0,102724.3577101667,2.677860998001768,1.845105966538429,0.8099687029731312,-1.725516796112061,-1.542867302894592,1.635325789451599,0.7019579410552979,-0.0185542106628418,-0.7432893514633179,2,0.6583901148934537,-0.3998900005527992,-0.61226839263281,0.1781508969538629,0.663741409778595,-0.7242655754089355,0.186779111623764,39.531005859375,-26.69020080566406,-8.053375244140625,2
1596230392.197344,70,0,102724.38780775,2.685198072483157,1.789295375569264,0.8715782986443782,0.4966252148151398,-0.7156084179878235,1.716174125671387,-0.2151528596878052,-0.1279157400131226,-0.7044894695281982,2,0.6289983936483783,-0.4172744555048007,-0.6270826228091106,0.1923809312966076,0.6283166408538818,-0.7653456926345825,0.1395138949155807,37.00830078125,-28.60340881347656,-11.55364990234375,2
1596230392.229265,71,0,102724.41790575,2.637975372142384,1.867931767322864,0.8865221125401604,0.9279256463050842,2.851362943649292,-0.5116981267929077,-0.8077579736709595,-0.04733067750930786,-0.1950181722640991,2,0.6398368997401677,-0.4279534478465296,-0.6061545771365794,0.2001026713317713,0.6044108867645264,-0.7748780250549316,0.1850708276033401,36.38050842285156,-29.86848449707031,-11.10922241210938,2
1596230392.258586,72,0,102724.44800375,2.613400550991063,1.969126596668305,0.8306978043920549,1.180272936820984,1.971323847770691,-2.046833515167236,-0.4048880338668823,-0.00565946102142334,-0.03578996658325195,2,0.6775043986456324,-0.4144552959167448,-0.5763825804422513,0.1923474573187418,0.6215646266937256,-0.7384021282196045,0.2615708112716675,38.37782287597656,-28.66800689697266,-5.995941162109375,2
1596230392.289114,73,0,102724.47810175,2.615557117556825,1.992813604728951,0.7904774860839664,-0.5451387166976929,0.1941008567810059,-0.08330047875642776,0.1662923693656921,-0.1468174457550049,0.7374324798583984,2,0.6937654692706396,-0.4034452516779257,-0.5682315254042718,0.1817535301083567,0.641783595085144,-0.7106892466545105,0.288157194852829,39.59255981445312,-27.66301727294922,-4.280792236328125,2
1596230392.317624,74,0,102724.50819975,2.658611211926671,1.979163976571313,0.8292393975925477,-1.815498113632202,0.7225988507270813,1.212380290031433,0.162355363368988,-0.0359998345375061,0.08644914627075195,2,0.6898870871723612,-0.3977030683908752,-0.5684575383163478,0.2067463186415054,0.6198957562446594,-0.7374178171157837,0.2682238519191742,39.58213806152344,-27.36627960205078,-4.364349365234375,2
1596230392.349015,75,0,102724.53829775,2.688977889777375,1.967837881006502,0.8690819424787091,-0.2382848560810089,0.3227545917034149,0.4699094891548157,-0.1128813028335571,0.1375890970230103,-0.4022164344787598,2,0.6837192672209963,-0.3966587025202729,-0.5681476649416903,0.2289062272505555,0.59531170129776,-0.7637366056442261,0.2496203184127808,39.11003112792969,-27.98802185058594,-4.757354736328125,2
1596230392.377769,76,0,102724.56839575,2.686099740595867,1.995495332089076,0.8580560681962233,0.2408207207918167,1.075348258018494,-1.026698112487793,-0.09416830539703369,0.2322256565093994,-0.2580766677856445,2,0.6934449236132018,-0.3922431800862086,-0.5592441275339463,0.2291843497407867,0.5958179831504822,-0.7565728425979614,0.269441157579422,38.86921691894531,-28.56390380859375,-4.239990234375,2
1596230392.410303,77,0,102724.59849375,2.701027413874991,2.008118107492029,0.8272651897816347,0.163541316986084,0.4868986904621124,-0.7520484328269958,0.1873731017112732,0.02031004428863525,-0.1264504194259644,2,0.706689674862702,-0.3793763600232209,-0.5538206890605905,0.2234856498666818,0.6131883859634399,-0.7360829710960388,0.2866734266281128,39.6402587890625,-27.75875091552734,-3.364593505859375,2
1596230392.438025,78,0,102724.62859175,2.693757907256255,2.01403762259297,0.8190404799978516,0.260964423418045,-0.5364145636558533,0.1966734528541565,0.1386594772338867,-0.03522366285324097,0.05168616771697998,2,0.7087476186367436,-0.3796303226243807,-0.5526892101942429,0.2192993061491531,0.6169289946556091,-0.7304908633232117,0.2928847372531891,40.25778198242188,-26.42355346679688,-2.396240234375,2
1596230392.468992,79,0,102724.65868975,2.687170081995696,1.998561380394818,0.823795935943336,-0.1568757742643356,-0.5187035799026489,0.2619046866893768,-0.05059146881103516,-0.1158332228660583,0.2384614944458008,2,0.7021462693273982,-0.3846032632786429,-0.5587794154623773,0.2164174787542422,0.6182200312614441,-0.7337301969528198,0.2818581163883209,40.12576293945312,-26.68059539794922,-2.671234130859375,2
1596230392.498287,80,0,102724.68878775,2.694129481407016,1.985090841360765,0.8340156793897706,-0.4108492136001587,-0.2194932401180267,0.03261187672615051,-0.2154984474182129,0.009421944618225098,0.08389508724212646,2,0.6974585543446855,-0.3857300330381955,-0.5625206715968876,0.2198505289682902,0.6150637865066528,-0.7406355142593384,0.2704721987247467,39.72024536132812,-27.40286254882812,-3.5845947265625,2
1596230392.529305,81,0,102724.71888575,2.718890661676417,1.959871713372435,0.8290165931111897,-0.2771105766296387,0.05980522930622101,-0.6925075054168701,0.01649415493011475,0.1712605357170105,-0.1904438734054565,2,0.6961535720243511,-0.3788259229406893,-0.5687167220926785,0.2200506288825599,0.6251065731048584,-0.7372673153877258,0.2562777400016785,40.02682495117188,-26.88588714599609,-4.206787109375,2
1596230392.558386,82,0,102724.74898375,2.727213541049309,1.968832218701823,0.8121919906302874,0.3521235883235931,0.8030461668968201,-0.3568497002124786,0.2718576192855835,0.004955410957336426,-0.1520271301269531,2,0.703874186377924,-0.3713231474945891,-0.5651598794090701,0.2174272921448816,0.6341313123703003,-0.7257968187332153,0.2666395008563995,40.26181030273438,-26.33259582519531,-4.2716064453125,2
1596230392.589048,83,0,102724.77908175,2.7095679874121,2.00191430918825,0.7957086027885206,0.7291902303695679,0.009260639548301697,-0.6166236996650696,0.3654486536979675,-0.1855466365814209,0.3285311460494995,2,0.7133830479237568,-0.3705384115733355,-0.5557211461139653,0.2120372700000081,0.6357482075691223,-0.7143596410751343,0.2924281656742096,40.82231140136719,-25.91245269775391,-2.45513916015625,2
1596230392.618624,84,0,102724.80917975,2.699994156610575,1.962320343194377,0.7508081917713029,1.265227675437927,-2.949076652526855,-1.855661988258362,0.6639356017112732,0.1363780498504639,0.217676043510437,2,0.7098379298956375,-0.3682802129165782,-0.5715154279842281,0.1840379502541823,0.6758115887641907,-0.6822298765182495,0.2790004014968872,41.46707153320312,-25.14070892333984,-2.936309814453125,2
1596230392.648934,85,0,102724.83927775,2.621383066019233,1.892514816762357,0.6592705348765879,5.099291801452637,-5.979204654693604,-2.564886331558228,1.278840899467468,0.5898940563201904,0.4269163608551025,2,0.6930603798965494,-0.3803086422583467,-0.6021670464596255,0.1114778437037019,0.7498842477798462,-0.6125404238700867,0.2499347031116486,42.20933532714844,-22.26336669921875,-6.455535888671875,2
1596230392.678821,86,0,102724.86937575,2.419022433966896,1.79052454932541,0.5226854292596538,6.967258453369141,-7.591705322265625,-2.748610973358154,0.5571995377540588,0.3661317825317383,1.060552716255188,2,0.6480967782330935,-0.4176142196355909,-0.636355380834018,-0.02491394974680541,0.8456485867500305,-0.4992088079452515,0.188862144947052,42.29193115234375,-20.90948486328125,-9.734283447265625,2
1596230392.710553,87,0,102724.89947375,2.216417830675046,1.620998960795911,0.4389689631702904,5.173748970031738,-9.442320823669434,-1.085156083106995,-0.2892898917198181,-0.5119072198867798,1.422314286231995,2,0.5659572634188408,-0.4498936512224716,-0.6723217367547958,-0.1589697376199705,0.9040496945381165,-0.4250064194202423,0.04542384296655655,39.5618896484375,-20.80837249755859,-17.86419677734375,2
1596230392.740601,88,0,102724.92957175,2.091118183007327,1.428297964532973,0.4232555504393833,3.168744325637817,-6.671679973602295,-0.4944553673267365,-0.8026727437973022,-0.2693582773208618,0.4088554978370667,2,0.4744566787255357,-0.4584196456668299,-0.7081914130594809,-0.251410539582039,0.9025153517723083,-0.4107308983802795,-0.1294845789670944,36.22238159179688,-22.02409362792969,-22.764404296875,2
1596230392.785606,89,0,102724.95966975,1.968931782790622,1.304565587080624,0.430600631698366,3.831079483032227,-4.330633640289307,-0.3072998821735382,-1.292375802993774,0.5544201135635376,-0.4095456004142761,2,0.4000042192902891,-0.4695280549808815,-0.7184366001878429,-0.3215411060405958,0.8767004609107971,-0.4174166917800903,-0.2390800565481186,29.68330383300781,-24.90291595458984,-28.55206298828125,2
1596230392.799266,90,0,102724.98976775,1.854800344909892,1.324184859255726,0.4802128761821316,3.756536722183228,1.52624523639679,2.141570568084717,-0.9600826501846313,1.681106090545654,0.1561375856399536,2,0.3652236561026597,-0.5082886655530798,-0.7006187011423577,-0.342618967828144,0.8600637316703796,-0.4619679749011993,-0.2165086269378662,27.8184814453125,-27.11678314208984,-28.79168701171875,2
1596230392.846901,91,0,102725.01986575,1.735805053317328,1.387933851411778,0.6140250265171066,4.377109527587891,-1.978772640228271,4.492860317230225,-0.6348474025726318,0.52691251039505,0.2057406902313232,2,0.314999125835052,-0.5713679534348415,-0.6840348645665415,-0.326206120425715,0.8037081956863403,-0.5761619210243225,-0.1486284285783768,25.06641387939453,-33.79000854492188,-23.721435546875,2
1596230392.859392,92,0,102725.04996375,1.656158339061867,1.355838855703429,0.73855775336343,1.456561923027039,-2.089914798736572,2.596302270889282,-0.1906225085258484,-2.135676145553589,0.5196353197097778,2,0.2407265591751853,-0.6026501946501822,-0.6881660108321799,-0.3244855997131426,0.7224223017692566,-0.6732221841812134,-0.1577269285917282,21.11914825439453,-37.68266296386719,-22.15475463867188,2
1596230392.907044,93,0,102725.08006175,1.609845001520132,1.301629843388394,0.8288550662370683,4.58190393447876,-4.742851257324219,2.406720638275146,0.4550935029983521,0.1945269703865051,1.234634518623352,2,0.1776452717916518,-0.6153013157938851,-0.6939969669869703,-0.3289597666779022,0.6513893008232117,-0.7371581792831421,-0.1796928942203522,14.15060424804688,-41.60923004150391,-21.40628051757812,2
1596230392.919863,94,0,102725.11015975,1.493926089560331,1.217068557322148,0.8486412950578892,0.6419907212257385,-7.989754199981689,-0.8202407956123352,1.178282260894775,-0.3123316764831543,-2.30851149559021,2,0.1060941305637163,-0.6117673029031029,-0.6807079540338991,-0.3887432234798909,0.6200790405273438,-0.7503829598426819,-0.2289696037769318,10.83340454101562,-43.85767364501953,-19.29153442382812,2
1596230392.966159,95,0,102725.14025775,1.297785362130752,1.2067927062691,0.9162438854750207,5.644337177276611,-5.500710010528564,2.047951936721802,-0.918461799621582,0.1276140809059143,-0.2953742146492004,2,0.0173981039348548,-0.625559403283735,-0.646235815896236,-0.4367516032177483,0.5689147114753723,-0.7933204770088196,-0.2167454808950424,6.688003540039062,-45.66738891601562,-17.0706787109375,2
1596230392.980196,96,0,102725.17035575,1.199934740112456,1.187556561076243,1.01937654026614,1.025836944580078,1.784992456436157,2.247920989990234,-0.6278723478317261,-0.8039122223854065,1.780053377151489,2,-0.05801785351294395,-0.6314145010830521,-0.6337972320577961,-0.4430018478631865,0.4858924746513367,-0.8517815470695496,-0.1958993077278137,0.5006256103515625,-48.52685546875,-11.39797973632812,2
1596230393.00999,97,0,102725.20045375,1.222840398978936,1.238238288459562,1.060262506166796,0.7560734748840332,1.871860504150391,0.6165619492530823,-0.7984386682510376,-0.1910240650177002,-0.1972023844718933,2,-0.04979362730015052,-0.6463427509964377,-0.6435935317278906,-0.406876931637317,0.4618701934814453,-0.8724837899208069,-0.1595232784748077,-0.8785324096679688,-48.61947631835938,-11.19735717773438,2
1596230393.040544,98,0,102725.23055175,1.125568791552975,1.370364171200016,1.067948682281806,1.446386814117432,1.264150023460388,-0.905130922794342,-0.01334589719772339,-0.3122891187667847,0.03318595886230469,2,-0.0426772317878763,-0.670973167196663,-0.6280171148881868,-0.3918776520694067,0.4722747206687927,-0.8762137889862061,-0.09594732522964478,-0.4486160278320312,-49.28093719482422,-8.64923095703125,2
1596230393.085706,99,0,102725.26064975,1.085860146519793,1.425483165560854,1.04259627294053,-0.1525458842515945,0.7023837566375732,-0.4916515350341797,0.5145585536956787,-0.1592167615890503,-0.01507538557052612,2,-0.02962983041478603,-0.6801715806003655,-0.6177835978464873,-0.3934871106263598,0.4986678659915924,-0.8637155890464783,-0.07297738641500473,0.732025146484375,-49.29012298583984,-7.95758056640625,2
1596230393.100176,100,0,102725.29074775,1.079779731111101,1.458938194962251,1.056874254736971,0.5853227972984314,0.798156201839447,1.32473361492157,0.1785117089748383,0.4145619869232178,-0.03511887788772583,2,-0.02655594625600083,-0.6869188922064324,-0.619189309850705,-0.3795282587702867,0.4885239601135254,-0.8708231449127197,-0.05487443506717682,0.8180770874023438,-49.29981231689453,-7.598876953125,2
1596230393.143532,101,0,102725.32084575,1.034720863009266,1.513453625305342,1.106330240152235,1.077702760696411,-0.02351906895637512,1.379704117774963,-0.3543176054954529,0.1798611283302307,0.4208465218544006,2,-0.04308866609007878,-0.6966399393382532,-0.6194721463048392,-0.3592914690028368,0.4472091197967529,-0.8940608501434326,-0.02567232400178909,-0.3764495849609375,-49.51976776123047,-6.844451904296875,2
1596230393.160544,102,0,102725.35094375,0.9933578306670859,1.541870598348165,1.118678705932421,-0.2404174208641052,-0.04947018623352051,-0.5650039911270142,-0.2279158234596252,-0.4477499127388,0.3907862901687622,2,-0.05317514786631219,-0.7006103564657369,-0.614762398494017,-0.3583082251249914,0.4366887509822845,-0.8995239734649658,-0.01263506431132555,-1.855270385742188,-49.60100555419922,-5.54632568359375,2
1596230393.204128,103,0,102725.38104175,1.03178158672717,1.522842495161981,1.098593708176421,-0.476696103811264,0.8235248327255249,-0.3034226894378662,0.08500188589096069,-0.04990589618682861,0.07624226808547974,2,-0.03844197003994235,-0.6982983022495288,-0.6178894304634573,-0.3593248464392029,0.4543260931968689,-0.8905686140060425,-0.02180339209735394,-1.392105102539062,-49.69239044189453,-5.7955322265625,2
1596230393.220583,104,0,102725.411140375,1.02776461537832,1.54033377079071,1.109638903539202,0.4005016088485718,0.100837841629982,0.85293048620224,0.2425980567932129,0.07218188047409058,-0.1229929327964783,2,-0.03837597181983235,-0.7012493452409039,-0.6193204987473875,-0.3510252878149427,0.4447784423828125,-0.8955380320549011,-0.01355328131467104,-1.046142578125,-49.47948455810547,-6.243743896484375,2
1596230393.26374,105,0,102725.441238375,1.013348109925104,1.546687167718396,1.132895961231344,-0.002179190516471863,-0.7072659134864807,0.5691512823104858,0.245007336139679,-0.04944086074829102,0.1167792081832886,2,-0.04972798908192658,-0.7017236016770455,-0.6207770159408748,-0.346044744177796,0.4239155352115631,-0.9056439995765686,-0.01022222824394703,-1.918464660644531,-49.47618865966797,-6.14801025390625,2
1596230393.280754,106,0,102725.471336375,0.9995001639650266,1.52375858733969,1.147135650992851,0.4929960370063782,-1.399133086204529,0.4018032550811768,-0.01249188184738159,0.1289043426513672,0.1606175899505615,2,-0.06674827907848133,-0.6970506662973045,-0.6199993019822621,-0.353928928466045,0.4106450080871582,-0.9115901589393616,-0.01933007128536701,-3.184066772460938,-49.73455047607422,-5.71014404296875,2
1596230393.324932,107,0,102725.501434375,0.9634612532429115,1.524844703523451,1.158406587360437,0.3769944608211517,-0.6396127939224243,0.3902929723262787,0.1651833355426788,0.2082338929176331,0.09743010997772217,2,-0.0829750139534968,-0.6956361774908324,-0.6154272886277895,-0.3611849911052675,0.4003765285015106,-0.9161656498908997,-0.01841091178357601,-3.866455078125,-49.7149658203125,-5.174163818359375,2
1596230393.341095,108,0,102725.531532375,0.9499192354762654,1.504097964356723,1.178997323596544,0.0483100563287735,-1.6974778175354,0.9360971450805664,-0.167488694190979,-0.2768846154212952,0.04462867975234985,2,-0.1013881032905699,-0.6906485792622578,-0.615345135298784,-0.3661628635331723,0.3810023665428162,-0.9242236018180847,-0.02544998563826084,-5.007102966308594,-49.80185699462891,-4.514312744140625,2
1596230393.384248,109,0,102725.561630375,0.9687398289964656,1.429310834973416,1.200760523577629,-0.406892716884613,-1.882698774337769,0.2974570989608765,-0.5119145512580872,-0.07012104988098145,0.2979108095169067,2,-0.1258355405856397,-0.6772493452928237,-0.6178653870329459,-0.3791319204185444,0.3580348491668701,-0.932314395904541,-0.05099748075008392,-5.8885498046875,-49.68989562988281,-4.462646484375,2
1596230393.401123,110,0,102725.591727375,1.003315504047115,1.342540557561073,1.187778823285238,-0.5958949327468872,-1.531941771507263,-0.8424052000045776,-0.6035601496696472,0.007835030555725098,0.2235524654388428,2,-0.1363030563136042,-0.6626755723006491,-0.6172375864294424,-0.4016220063513954,0.3640274405479431,-0.9275411367416382,-0.08456512540578842,-6.7041015625,-49.70298767089844,-4.89337158203125,2
1596230393.443697,111,0,102725.621825375,1.045529184715918,1.27512766462751,1.155226840021316,-1.063302040100098,-0.3069763481616974,-0.8012650012969971,-0.3833210170269012,-0.1102164387702942,0.2263699769973755,2,-0.1311825246240642,-0.6511333459964344,-0.6177151225890415,-0.4210039858964908,0.3861926198005676,-0.9148865342140198,-0.1176330223679543,-5.375373840332031,-49.64375305175781,-6.310333251953125,2
1596230393.461347,112,0,102725.651923375,1.100952512709602,1.219296428288795,1.125229368603197,-0.8529371023178101,-0.2341241836547852,-0.7928643822669983,-0.02567070722579956,0.01274347305297852,-0.01208120584487915,2,-0.119359993884371,-0.6415297545764307,-0.6230514605239699,-0.4312766960358864,0.4046188294887543,-0.9023664593696594,-0.1483855247497559,-4.643287658691406,-49.36405181884766,-7.085906982421875,2
1596230393.504502,113,0,102725.682021375,1.120650312567184,1.194178014392923,1.084593841197677,-0.8323604464530945,-0.3325607478618622,-1.264531493186951,0.8413573503494263,-0.003209769725799561,0.05854952335357666,2,-0.1056034383571622,-0.6347612382352588,-0.6222488845139547,-0.4457939884074789,0.4345222413539886,-0.8841137290000916,-0.171852171421051,-2.884307861328125,-49.33840942382812,-8.577667236328125,2
1596230393.525306,114,0,102725.712119375,1.160266520325606,1.123009520589364,1.066600003617837,-0.5180335640907288,-2.078267574310303,0.8716503381729126,0.8095552325248718,-0.08771288394927979,-0.2258746027946472,2,-0.1085831752955197,-0.6193743667345532,-0.6259453035905993,-0.4612780214727275,0.4354732930660248,-0.8755630254745483,-0.2091701775789261,-2.506484985351562,-49.10440826416016,-9.411712646484375,2
1596230393.562893,115,0,102725.742217375,1.206253523211833,1.011999643685907,1.100781563232797,0.1319735199213028,-2.438291788101196,1.315193057060242,0.1127719283103943,0.01619619131088257,-0.03823095560073853,2,-0.1424444004492197,-0.5997112818823921,-0.6316448953148949,-0.4701920950679618,0.3840104639530182,-0.8915616273880005,-0.2401119470596313,-5.086395263671875,-48.94650268554688,-9.921539306640625,2
1596230393.581754,116,0,102725.772315375,1.227783096687889,0.9161126830135867,1.119884181225701,0.1486335694789886,-2.639058113098145,0.001522504724562168,-0.4148158431053162,-0.03599101305007935,0.0009508728981018066,2,-0.17357000125071,-0.580686131442717,-0.6297540713601557,-0.4858877219579123,0.3456836938858032,-0.9000499844551086,-0.2653541564941406,-6.514732360839844,-48.83738708496094,-9.70281982421875,2
1596230393.625462,117,0,102725.802413375,1.172681058356805,0.8898133834696159,1.116309474410974,1.132365703582764,-2.426554203033447,-1.161717534065247,-0.08646857738494873,0.1514347195625305,0.1092453002929688,2,-0.196220798553734,-0.5686029139492761,-0.6135153225925,-0.5116512114536477,0.3410837948322296,-0.8984864354133606,-0.2763762474060059,-6.855087280273438,-49.30239105224609,-8.629913330078125,2
1596230393.642273,118,0,102725.832511375,1.019492339799218,0.947792492296785,1.104606467389009,1.629845380783081,-2.800194501876831,-2.080957651138306,0.2582207024097443,0.2442027926445007,0.2220777869224548,2,-0.2179092996016403,-0.5669066026278686,-0.578615152725665,-0.5443683964751365,0.3650408387184143,-0.8932873606681824,-0.2622648775577545,-6.089378356933594,-49.62895965576172,-7.091217041015625,2
1596230393.684466,119,0,102725.862609375,0.8881770282129902,0.9951168702830951,1.073369225404087,0.483823299407959,-1.691766738891602,-1.759057998657227,0.01210543513298035,0.1981594562530518,0.3635778427124023,2,-0.2294878132669512,-0.5634266949480998,-0.5448216745438202,-0.5771091163827333,0.4002574980258942,-0.8788131475448608,-0.2597714066505432,-2.650299072265625,-50.12316131591797,-4.220733642578125,2
1596230393.702222,120,0,102725.892707375,0.8213113700225358,1.013641939699665,1.045633555315121,0.7007721066474915,-1.351858377456665,-0.77195143699646,-0.3161700963973999,0.1859448552131653,-0.2348240613937378,2,-0.2323668975311437,-0.5598700141648449,-0.5246227507119327,-0.5977642602811987,0.4255306422710419,-0.8652423620223999,-0.2651023864746094,-1.405364990234375,-50.14167785644531,-3.7392578125,2
1596230393.744092,121,0,102725.922805375,0.7842940207012407,0.9804279391867607,1.07219723370066,1.033209800720215,-3.096949100494385,1.725031733512878,-0.501879096031189,0.1060852408409119,-0.3313416838645935,2,-0.2617348365505708,-0.5462572775890935,-0.5120943696708943,-0.6089804146520357,0.3972541093826294,-0.8782533407211304,-0.2661957144737244,-1.006103515625,-50.36557769775391,-2.42706298828125,2
1596230393.762475,122,0,102725.952903375,0.8314200175940587,0.8518139832140283,1.131684616725323,0.5722841620445251,-2.043580770492554,1.453088879585266,-0.3064865469932556,0.1060148477554321,-0.1161752343177795,2,-0.3058088336524216,-0.5162167720667051,-0.5130760519236099,-0.6138029643807084,0.3199043869972229,-0.9051296710968018,-0.2800024151802063,-2.968009948730469,-50.24693298339844,-1.497222900390625,2
1596230393.807155,123,0,102725.983001375,0.8070832010553742,0.8557561257979756,1.132845471949194,-0.8275651335716248,0.01308247819542885,-1.244388818740845,-0.4900869727134705,-0.169669508934021,-0.1143397688865662,2,-0.31153107244038,-0.5137347830294539,-0.506259143479949,-0.6186489029685711,0.3202120065689087,-0.9056226015090942,-0.2780499160289764,-4.463211059570312,-50.16753387451172,-0.419189453125,2
1596230393.826389,124,0,102726.013099375,0.833352069988013,0.8542278124739234,1.095802087830542,-0.5105292797088623,2.023314476013184,-0.001282007433474064,-0.1003963053226471,-0.03096127510070801,0.07812196016311646,2,-0.2904239754233756,-0.5152334057021362,-0.511760548935833,-0.6231288149669185,0.3448584973812103,-0.8892953395843506,-0.3003768920898438,-3.471214294433594,-50.21813201904297,-1.1939697265625,2
1596230393.865341,125,0,102726.043197375,0.8206393071818486,0.9200843481929279,1.100496901162862,0.4388792812824249,0.2042174488306046,-0.233758807182312,-0.08539003133773804,-0.572983980178833,-0.131565272808075,2,-0.2786785332843323,-0.5339370832649665,-0.5175604817288577,-0.6077668961810065,0.360552579164505,-0.8914326429367065,-0.2744989395141602,-3.11456298828125,-50.09210968017578,-2.099578857421875,2
1596230393.882864,126,0,102726.073295375,0.8217550348682893,0.8908312280478409,1.087759646033421,-0.7773450613021851,-0.657260000705719,-0.266525000333786,0.1903362572193146,-0.0162244439125061,-0.1305363178253174,2,-0.2808556360004644,-0.5244983676842864,-0.5128182652805027,-0.6189013653996261,0.3611697256565094,-0.8855885863304138,-0.292043149471283,-3.208908081054688,-50.19113922119141,-1.691314697265625,2
1596230393.924729,127,0,102726.103393375,0.8400588303036822,0.8818931999545416,1.081009442386585,0.1950846761465073,0.4782400131225586,0.2988213300704956,0.08014270663261414,0.3791980743408203,-0.193942129611969,2,-0.2756676546509501,-0.5239092612374914,-0.5167376983029315,-0.6184726408613826,0.363151341676712,-0.8824331164360046,-0.2990528643131256,-2.922111511230469,-50.03235626220703,-2.803131103515625,2
1596230393.942889,128,0,102726.133491375,0.8307335778350894,0.8963911284388978,1.094800322952066,0.3499263823032379,0.00171624543145299,-0.02083738148212433,-0.004188716411590576,-0.0579451322555542,0.1706293225288391,2,-0.2798646381584572,-0.5278359142133852,-0.5168923896873464,-0.6130964559954917,0.3579088449478149,-0.8888367414474487,-0.2861300706863403,-3.090713500976562,-49.97675323486328,-2.05841064453125,2
1596230393.982315,129,0,102726.163589375,0.8170785159256719,0.9036083497570264,1.087818728453634,-0.2797125577926636,-0.3048157095909119,-0.2558735907077789,0.2945814728736877,-0.2098302841186523,0.09893602132797241,2,-0.2788321339068668,-0.5277939965404976,-0.5131660693779599,-0.6167224231059359,0.3648304045200348,-0.8856160044670105,-0.2873722910881042,-2.864959716796875,-49.78949737548828,-1.995758056640625,2
1596230394.003244,130,0,102726.193687375,0.840301421837817,0.8749210273106383,1.090613793847641,-0.01043649110943079,-0.270904004573822,0.7803383469581604,0.1402055621147156,0.1623623371124268,0.02408856153488159,2,-0.2812333464352959,-0.5223432662072625,-0.5165224866027454,-0.6174703978890426,0.3545363247394562,-0.886910617351532,-0.2961306273937225,-3.076576232910156,-49.97491455078125,-2.327301025390625,2
1596230394.043454,131,0,102726.223785375,0.8682879854183621,0.8366115427410831,1.110242257829565,0.0781610980629921,-0.5730257034301758,0.4973929524421692,-0.4044941067695618,-0.0900648832321167,0.04316031932830811,2,-0.2917163470344796,-0.5157680853174379,-0.5208802936654745,-0.6144659397506087,0.3299452364444733,-0.8958063721656799,-0.297769695520401,-3.838272094726562,-50.09201812744141,-2.3092041015625,2
1596230394.063344,132,0,102726.253883375,0.8764550180464095,0.822800028246517,1.106937104955332,-0.4055107533931732,0.3009145259857178,-0.4201747477054596,-0.4945940971374512,-0.07448428869247437,0.2484751343727112,2,-0.2919014625302746,-0.5124824113258265,-0.5212020547616903,-0.6168498781914846,0.3279701471328735,-0.8943325281143188,-0.3043106198310852,-4.556007385253906,-49.90042114257812,-2.323272705078125,2
1596230394.102755,133,0,102726.283981375,0.8696597653556876,0.8508930020003793,1.086160107719968,-0.2646132707595825,1.041912913322449,-0.5846198797225952,-0.06251704692840576,0.1104936599731445,-0.05438774824142456,2,-0.2780553096415572,-0.5187514124843537,-0.521935574927598,-0.6173858993723046,0.3502857089042664,-0.8848444819450378,-0.3071644306182861,-3.800430297851562,-49.95706939697266,-2.594696044921875,2
1596230394.123992,134,0,102726.314079375,0.8664774143429226,0.8821690443435763,1.074679230262486,-0.2124039232730865,0.6585949659347534,-0.06772226095199585,0.1931110024452209,-0.05383086204528809,-0.1354897022247314,2,-0.2661302752179919,-0.5271873033567801,-0.5244630999989738,-0.6133404581892878,0.3675395846366882,-0.8794375061988831,-0.3024964332580566,-2.78240966796875,-50.10879516601562,-3.112548828125,2
1596230394.165074,135,0,102726.344176375,0.8763321959385773,0.8855793869020344,1.070153819086601,-0.2131780833005905,0.1174124777317047,-0.03141437098383904,0.2512951791286469,0.03523904085159302,-0.06768357753753662,2,-0.2608279495143989,-0.5292356189147484,-0.5276158765899369,-0.6111463835992985,0.3716469407081604,-0.8772743344306946,-0.3037568926811218,-2.760261535644531,-50.12052917480469,-3.600738525390625,2
1596230394.183839,136,0,102726.374274375,0.8832640547132971,0.8729704066150837,1.06920703647822,0.07194001972675323,-0.453276127576828,0.1603977084159851,0.06074532866477966,0.03805875778198242,-0.1063323616981506,2,-0.2619492924440594,-0.5262190592955595,-0.5280254354439283,-0.6129152109636002,0.3684235513210297,-0.8768194913864136,-0.3089521527290344,-2.760459899902344,-50.01529693603516,-3.7637939453125,2
1596230394.227567,137,0,102726.40437225,0.8866563230967373,0.8554623886280044,1.075328001354624,0.008700734935700893,-0.406053215265274,0.1339909732341766,-0.102163165807724,0.005335092544555664,0.0150068998336792,2,-0.2681185177982353,-0.5217259854041405,-0.527134423803674,-0.6148525160525997,0.3589000701904297,-0.87974613904953,-0.3118289113044739,-2.997200012207031,-49.89133453369141,-3.8516845703125,2
1596230394.243952,138,0,102726.43447025,0.8863720187753863,0.849969508803492,1.074343909194202,-0.004604151472449303,0.01184388995170593,-0.164611428976059,-0.06758755445480347,0.001258909702301025,-0.004789471626281738,2,-0.269246787332334,-0.5199256457079779,-0.5262493399544741,-0.6166401930452883,0.3578322231769562,-0.8792778253555298,-0.3143669664859772,-3.19384765625,-50.15312194824219,-3.64276123046875,2
1596230394.287263,139,0,102726.46456825,0.8817950377329576,0.8564647859834369,1.069340318920701,-0.1114831492304802,0.07333316653966904,-0.1045013666152954,0.01792809367179871,-0.01177263259887695,0.03623157739639282,2,-0.2667339437551586,-0.5209566405055303,-0.5254004538465994,-0.6175852034580076,0.3631859421730042,-0.8768835663795471,-0.3149143755435944,-3.042449951171875,-50.16259765625,-3.891998291015625,2
1596230394.304281,140,0,102726.49466625,0.8860669484491337,0.8512956291998783,1.067280244017282,-0.0448090061545372,-0.1938081681728363,0.02897612750530243,-0.02711167931556702,0.01029253005981445,0.03300398588180542,2,-0.2661587042487493,-0.5197797182043964,-0.525904208188641,-0.6183956287355737,0.3629110455513,-0.8758914470672607,-0.3179771900177002,-2.924003601074219,-49.91871643066406,-3.8203125,2
1596230394.34863,141,0,102726.52476425,0.8882467389371761,0.8459513495326235,1.065736124742197,-0.1282109767198563,0.04464752227067947,-0.06794074177742004,-0.05712577700614929,0.004912912845611572,0.08941704034805298,2,-0.2663815216095004,-0.5183016713223763,-0.5257736026192958,-0.6196500994045466,0.3622186183929443,-0.8751453757286072,-0.3208085298538208,-2.923233032226562,-50.02066040039062,-3.7784423828125,2
1596230394.364414,142,0,102726.55486225,0.8915761590610635,0.8451813534814414,1.060612562108608,-0.1164230406284332,0.03164042532444,-0.09634490311145782,-0.01466205716133118,-0.002082169055938721,-0.07252621650695801,2,-0.2636743246781448,-0.5181182848400863,-0.5263956398734162,-0.6204327467490904,0.3653210699558258,-0.8726547956466675,-0.3240585923194885,-2.631515502929688,-50.01620483398438,-4.115875244140625,2
1596230394.408362,143,0,102726.58496025,0.8927995552045269,0.8427450285305707,1.058114895216927,-0.0884450227022171,-0.09909873455762863,0.01043851021677256,0.02704805135726929,0.02243548631668091,-0.01844382286071777,2,-0.2630003606975077,-0.5173319199823138,-0.5263048383105079,-0.6214511872079386,0.3661563396453857,-0.871432363986969,-0.3263970017433167,-2.547706604003906,-49.94063568115234,-4.511322021484375,2
1596230394.424598,144,0,102726.61505825,0.898546383916365,0.8356119044849283,1.058048829210559,-0.07195610553026199,-0.09623420238494873,0.0581371895968914,-0.003813624382019043,0.00184863805770874,-0.05910027027130127,2,-0.2633681631560352,-0.5158658898760174,-0.527148445443213,-0.6217990468766075,0.3638615906238556,-0.8713999390602112,-0.3290391862392426,-2.782066345214844,-49.86826324462891,-4.60845947265625,2
1596230394.465631,145,0,102726.64515625,0.8995887561632282,0.8312395470272211,1.057320829396182,0.03299275785684586,-0.1190715134143829,-0.07360749691724777,0.02413567900657654,0.05487650632858276,-0.04813086986541748,2,-0.2639606282839176,-0.5145848457164083,-0.5268547756327973,-0.6228573113509558,0.3628880381584167,-0.8710426092147827,-0.3310544490814209,-2.74884033203125,-49.97312164306641,-4.51031494140625,2
1596230394.485022,146,0,102726.67525425,0.896832466021064,0.828190770520818,1.058452478615104,0.01803630217909813,-0.2007171958684921,0.1195373684167862,0.001070678234100342,-0.03295403718948364,0.01206576824188232,2,-0.2659238127754332,-0.5133599006424845,-0.5256557486464266,-0.6240447758687145,0.3611503541469574,-0.8715978860855103,-0.3314922749996185,-2.775588989257812,-49.95231628417969,-4.404815673828125,2
1596230394.528261,147,0,102726.70535225,0.902766277587758,0.8172535225988599,1.060602880263462,-0.0132928229868412,-0.1735480278730392,0.01473681628704071,-0.08503293991088867,-0.0119444727897644,0.04145199060440063,2,-0.2681407041084904,-0.5109117886726394,-0.5261652337787646,-0.6246757924738648,0.3561358153820038,-0.8726500272750854,-0.3341394066810608,-2.909942626953125,-49.94775390625,-4.352630615234375,2
1596230394.54495,148,0,102726.73545025,0.8955253201068515,0.8177021853259571,1.058161069898965,0.06264174729585648,-0.1397399753332138,-0.2060318887233734,-0.005643904209136963,0.05022925138473511,-0.02888911962509155,2,-0.26889353684965,-0.509880667570366,-0.5238281803933188,-0.6271539390421004,0.3578393161296844,-0.8714550137519836,-0.3354359269142151,-2.829261779785156,-49.91874694824219,-4.638397216796875,2
1596230394.586108,149,0,102726.76554825,0.8922484290460094,0.8221682922356165,1.052087566150421,-0.3324041068553925,0.1936622262001038,-0.1678734123706818,0.1092635989189148,0.01199150085449219,0.05900919437408447,2,-0.2661270177841069,-0.5103538762478914,-0.5230597606003571,-0.628588741860497,0.3632047474384308,-0.8684600591659546,-0.3374306559562683,-2.561294555664062,-49.96631622314453,-4.525299072265625,2
1596230394.605299,150,0,102726.79564625,0.901429450563128,0.8117455568090689,1.052405168247826,0.1695841103792191,-0.2692629992961884,0.3453148603439331,0.02122390270233154,-0.02256268262863159,-0.1319906711578369,2,-0.2666459778864936,-0.5083266186525102,-0.5245749081655164,-0.6287488032620758,0.3594679236412048,-0.8686174750328064,-0.3410079479217529,-2.430816650390625,-49.85616302490234,-5.070281982421875,2
1596230394.646322,151,0,102726.82574425,0.9114701158346608,0.8007352945988307,1.057192195482297,-0.1852175742387772,0.0854031890630722,0.02326409704983234,-0.1359351575374603,0.02728617191314697,0.05094653367996216,2,-0.2689087670380777,-0.5066211432799437,-0.5264986364161913,-0.6275524403165009,0.3527024686336517,-0.870979368686676,-0.3420461714267731,-3.150970458984375,-49.88130950927734,-4.541748046875,2
1596230394.665415,152,0,102726.85584225,0.9102054193006534,0.8071320430691439,1.054239122406248,0.04756801947951317,0.233524963259697,-0.09192698448896408,-0.04763534665107727,0.01261305809020996,-0.03362190723419189,2,-0.2663629814535871,-0.508203266462345,-0.526810776053634,-0.6270968544137496,0.3567395508289337,-0.8695247173309326,-0.3415603935718536,-3.0972900390625,-49.78176116943359,-4.814666748046875,2
1596230394.705669,153,0,102726.88594025,0.9115141693874331,0.8121461453660137,1.053235340347777,-0.06860780715942383,0.1273771524429321,0.03672565519809723,0.06048011779785156,-0.01117455959320068,-0.01616966724395752,2,-0.2643060242686291,-0.5098612418782675,-0.5278344763362358,-0.6257591220732989,0.359080970287323,-0.8690285086631775,-0.3403676748275757,-2.875831604003906,-50.06539916992188,-4.935333251953125,2
1596230394.725567,154,0,102726.91603825,0.9138780244729883,0.810639370556877,1.054087028795207,-0.003906088881194592,-0.0802321583032608,0.04025209322571754,0.001973778009414673,0.01551282405853271,-0.01531487703323364,2,-0.2644421895716073,-0.5097756430620302,-0.5284183291653739,-0.6252783943681067,0.3580311834812164,-0.8694495558738708,-0.3403982520103455,-2.770706176757812,-49.98157501220703,-4.970794677734375,2
1596230394.768752,155,0,102726.94613525,0.9155685276541968,0.8052777960907879,1.054438494543533,0.01828174106776714,-0.1605115681886673,-0.00871376134455204,-0.03443026542663574,0.01445263624191284,-0.0139394998550415,2,-0.2655688954861364,-0.5083528143707694,-0.5282544589939525,-0.626097152759619,0.3559806048870087,-0.8696231245994568,-0.3421011567115784,-2.920524597167969,-49.96905517578125,-4.79193115234375,2
1596230394.785934,156,0,102726.97623325,0.9145792762091874,0.8019435242010501,1.054185471573915,-0.007363218814134598,-0.09550027549266815,0.005065582692623138,-0.03768950700759888,-0.004625678062438965,-0.0009557604789733887,2,-0.2665988229699723,-0.5071542598531951,-0.5274883550211581,-0.6272763227102494,0.3549961745738983,-0.8694981932640076,-0.3434392511844635,-2.893043518066406,-50.03745269775391,-4.898712158203125,2
1596230394.827728,157,0,102727.00633125,0.9161934734080214,0.8001724013431537,1.054270788533691,-0.003689322620630264,0.03349179029464722,0.01568314246833324,-0.03205937147140503,-0.0007529854774475098,-0.02231353521347046,2,-0.2666910438182405,-0.5068214415058929,-0.5277626329365528,-0.6272754561699714,0.3543341755867004,-0.8695403337478638,-0.3440158367156982,-2.93701171875,-49.96271514892578,-4.78155517578125,2
1596230394.845861,158,0,102727.03642925,0.9125008848260627,0.8020115274314268,1.055698235972321,0.0982300341129303,-0.06495627760887146,-0.02674848958849907,-0.01340845227241516,0.04895663261413574,-0.01370275020599365,2,-0.2677134364627355,-0.5070300273426601,-0.5269199183686625,-0.6273797239418836,0.3540736436843872,-0.8702443838119507,-0.3425001204013824,-3.007759094238281,-49.88150787353516,-4.368988037109375,2
1596230394.887697,159,0,102727.06652725,0.9084465096639471,0.8028341488521649,1.058765297112697,0.135229155421257,-0.07024723291397095,0.1149751096963882,0.04332292079925537,0.01445776224136353,-0.02656018733978271,2,-0.2697524431995859,-0.50700801019135,-0.5259100802794001,-0.6273714430156487,0.3524336218833923,-0.8717511892318726,-0.3403529822826385,-3.131576538085938,-50.03694915771484,-4.621978759765625,2
