loggingTime,loggingSample,identifierForVendor,motionTimestamp_sinceReboot,motionYaw,motionRoll,motionPitch,motionRotationRateX,motionRotationRateY,motionRotationRateZ,motionUserAccelerationX,motionUserAccelerationY,motionUserAccelerationZ,motionAttitudeReferenceFrame,motionQuaternionX,motionQuaternionY,motionQuaternionZ,motionQuaternionW,motionGravityX,motionGravityY,motionGravityZ,motionMagneticFieldX,motionMagneticFieldY,motionMagneticFieldZ,motionMagneticFieldCalibrationAccuracy
1596230633.707822,1,0,102965.8995032917,1.860792111914832,-0.778874149405723,1.177365830473253,0.06717582792043686,0.09269106388092041,-0.05376763269305229,-0.01201453804969788,0.00132453441619873,-0.02123665809631348,2,0.5601315244983662,0.2232338103247405,0.490981813121717,0.6287736651667548,-0.26930171251297,-0.9235993623733521,-0.272838681936264,-25.16368103027344,-44.77978515625,7.94134521484375,2
1596230633.740468,2,0,102965.9296012917,1.863222994628244,-0.7779148076666894,1.179524721233776,0.08577521145343781,0.1257973164319992,0.009541141800582409,0.005801349878311157,0.01368153095245361,-0.0143435001373291,2,0.5599366590973445,0.2250180111468395,0.491365600062548,0.6280108927805924,-0.267639696598053,-0.9244248867034912,-0.2716756761074066,-25.35466766357422,-44.93208312988281,7.85662841796875,2
1596230633.769633,3,0,102965.9596992917,1.869257537199812,-0.7776258191545961,1.181842342928402,0.1118105351924896,0.1594854593276978,0.005686530377715826,0.02188235521316528,0.01271337270736694,0.01510095596313477,2,0.5595164343840794,0.2276587636851104,0.4926421459075652,0.6264316740088183,-0.2660574316978455,-0.9253062605857849,-0.2702257037162781,-25.40646362304688,-45.02537536621094,8.183502197265625,2
1596230633.803963,4,0,102965.9897972917,1.874403632268656,-0.7792801645821957,1.183394997929658,0.0854208916425705,0.06630159914493561,-0.01010355819016695,-0.008977383375167847,0.01730674505233765,-0.01053643226623535,2,0.5595579446096686,0.2291582735767463,0.4933222918658783,0.6253116033011904,-0.265494167804718,-0.9258939027786255,-0.2687627971172333,-25.39450836181641,-44.85488128662109,8.2393798828125,2
1596230633.828342,5,0,102966.0198952917,1.881950778316449,-0.7814536219786605,1.189616885915362,0.2918166220188141,0.3128154277801514,-0.1242776587605476,-0.06743568181991577,0.02493548393249512,-0.07115054130554199,2,0.560096996452393,0.2329080385750651,0.4931927937288084,0.6235432281910727,-0.2620151340961456,-0.9282265305519104,-0.2640903890132904,-25.35084533691406,-44.94538879394531,8.200531005859375,2
1596230633.86436,6,0,102966.0499932917,1.894716192043093,-0.7871652072490647,1.199629353961401,0.4299518465995789,0.04364205151796341,-0.2377946227788925,-0.001598507165908813,0.09279626607894897,-0.1758005023002625,2,0.5613717691720335,0.2384395519954937,0.4925275087098511,0.6208262302418328,-0.2569230198860168,-0.9319047331809998,-0.2560166418552399,-25.37369537353516,-44.93382263183594,8.319000244140625,2
1596230633.888427,7,0,102966.0800902917,1.903762742860909,-0.7955020259976164,1.212911423931378,0.3496219515800476,-0.02785133384168148,-0.04027518257498741,0.3337957262992859,-0.06648153066635132,-0.04963946342468262,2,0.564084246621267,0.2433493624656396,0.4889329678017068,0.619301794096685,-0.2501853704452515,-0.9366398453712463,-0.2451801002025604,-24.882080078125,-44.88371276855469,9.11370849609375,2
1596230633.921814,8,0,102966.1101882917,1.941743981228996,-0.8386718505442419,1.213049426886879,0.2595939636230469,-0.525854766368866,0.4989116191864014,0.1835587024688721,0.01469850540161133,-0.07185930013656616,2,0.5700518388941966,0.2408459875721491,0.4883729338112163,0.6152447774394776,-0.2604373097419739,-0.9366881847381592,-0.2340682297945023,-25.08124542236328,-44.72598266601562,9.492828369140625,2
1596230633.948668,9,0,102966.1402862917,1.985678291942532,-0.8956341689249727,1.208776606680343,0.3261862993240356,-0.521563708782196,0.3269252479076385,-0.1802319288253784,0.1033986210823059,-0.002007365226745605,2,0.5782599828916146,0.2343818252140895,0.4868203270039178,0.6112992142354723,-0.276462584733963,-0.9351834058761597,-0.2213611006736755,-25.38592529296875,-44.45027923583984,10.35006713867188,2
1596230633.985877,10,0,102966.1703842917,2.013388910326601,-0.9313633780438295,1.21123877140524,0.3284620344638824,-0.08500083535909653,-0.05033326894044876,-0.2502578496932983,0.05496346950531006,0.07125300168991089,2,0.583930301963079,0.2324666409374304,0.4841213144649508,0.6087785476747125,-0.282344788312912,-0.9360526204109192,-0.2099693268537521,-25.69811248779297,-44.25997161865234,10.76422119140625,2
1596230634.008728,11,0,102966.2004822917,2.033700069630651,-0.9511298754900206,1.220079116185456,0.3293630480766296,-0.05185758695006371,-0.04519467055797577,0.03864866495132446,-0.03098601102828979,0.05692100524902344,2,0.587070510966299,0.2357567512099691,0.4817249015878208,0.6063894646982608,-0.279692143201828,-0.9391265511512756,-0.1995339393615723,-25.22093200683594,-43.85188293457031,11.42575073242188,2
1596230634.043171,12,0,102966.2305802917,2.064319200101216,-0.9857227646144933,1.222740722033542,0.406537801027298,-0.3642335534095764,0.2507510483264923,0.08581119775772095,0.01078510284423828,0.06810116767883301,2,0.5919792861780356,0.2353305486607847,0.4799464216131715,0.6031845816094461,-0.2843411564826965,-0.9400376677513123,-0.1883601099252701,-25.30607604980469,-43.84503173828125,11.73587036132812,2
1596230634.071245,13,0,102966.2606782917,2.094060729994767,-1.027615167191706,1.222626888944149,0.1445677876472473,-0.5073453187942505,0.03230156749486923,-0.1486009061336517,0.03847122192382812,0.07352674007415771,2,0.5985180270127226,0.2315281416216892,0.476467437140021,0.6009573324026591,-0.2920716404914856,-0.9399988055229187,-0.176341786980629,-25.44382476806641,-43.44216918945312,12.6572265625,2
1596230634.102009,14,0,102966.2907762917,2.099472954601447,-1.046828407567991,1.226519858979688,0.09576323628425598,-0.4002588391304016,-0.111653208732605,-0.1049021184444427,-0.01092511415481567,0.02430707216262817,2,0.60265628802161,0.2288504432893204,0.4710895457650074,0.6020859767909792,-0.292234867811203,-0.9413198828697205,-0.1688657402992249,-25.32145690917969,-43.42501831054688,12.98898315429688,2
1596230634.129307,15,0,102966.3208742917,2.105070753407308,-1.060567007843938,1.229732149651491,0.2135481536388397,-0.2793388366699219,-0.03174736350774765,-0.06500193476676941,-0.00182044506072998,0.01851010322570801,2,0.6054011415356477,0.2276195601271909,0.4676040705303833,0.6025158582341626,-0.2918872833251953,-0.942399263381958,-0.1633575856685638,-25.23944091796875,-43.51808166503906,13.67678833007812,2
1596230634.166069,16,0,102966.3509722917,2.115312580517805,-1.077715915637123,1.234477806008521,-0.004396614618599415,-0.1843082457780838,-0.1059147790074348,-0.01340728998184204,0.0647958517074585,0.09849846363067627,2,0.6084442287301844,0.2273562676570891,0.463972050391688,0.6023576672162179,-0.2907026410102844,-0.9439759850502014,-0.1562094986438751,-24.98401641845703,-43.41686248779297,13.81942749023438,2
1596230634.189356,17,0,102966.3810702917,2.114048809946848,-1.079323100931378,1.235379287577588,0.0596122108399868,-0.0608256608247757,0.0306337047368288,0.008379131555557251,-0.02369356155395508,0.06734359264373779,2,0.6089982952628129,0.2268279888575434,0.4628142084516946,0.6028873080179404,-0.2902027070522308,-0.9442731142044067,-0.1553402841091156,-24.95927429199219,-43.72093200683594,13.96597290039062,2
1596230634.227016,18,0,102966.4111682917,2.115932436660912,-1.082931521227185,1.233692423101004,-0.04345299676060677,-0.1399917900562286,0.1085495129227638,0.1513171195983887,-0.0108758807182312,0.06575620174407959,2,0.6095494714275946,0.2256769366667239,0.4628213465215193,0.6027569117268849,-0.2921683490276337,-0.9437165260314941,-0.1550387293100357,-24.59857940673828,-43.5797119140625,13.90982055664062,2
1596230634.249578,19,0,102966.4412652917,2.122454252765571,-1.100596273638129,1.227032017373217,-0.0430108979344368,-0.5995615124702454,0.3092468678951263,0.1183846592903137,-0.00399017333984375,0.03933596611022949,2,0.6126381954042153,0.2198301617895297,0.4615130699031056,0.602789428050867,-0.3004584610462189,-0.9414926171302795,-0.152698278427124,-24.76241302490234,-43.38697052001953,14.23394775390625,2
1596230634.285262,20,0,102966.4713632917,2.12528857269055,-1.123832597234553,1.218301702654579,-0.1187132522463799,-0.6256523132324219,0.225546270608902,-0.1305028796195984,-0.02397650480270386,0.06906145811080933,2,0.6173509161259267,0.2103957800854455,0.4580003085694354,0.6040257702522781,-0.3113248646259308,-0.9385144114494324,-0.1492229253053665,-24.92929840087891,-43.22664642333984,14.41360473632812,2
1596230634.309834,21,0,102966.5014612917,2.124207578427068,-1.138386173934907,1.212717770119131,-0.09189853072166443,-0.4850319027900696,0.06905047595500946,-0.186443567276001,0.005807816982269287,-0.04172152280807495,2,0.6205887002577959,0.2035545918792092,0.4549431959173796,0.6053610202198044,-0.3182171881198883,-0.9365719556808472,-0.1468703895807266,-24.92523956298828,-42.99025726318359,14.712890625,2
1596230634.347814,22,0,102966.5315592917,2.119029554379502,-1.152273181149142,1.211898459863182,0.006936768069863319,-0.8180489540100098,-0.004404219798743725,0.09997975826263428,0.0469287633895874,-0.1453864574432373,2,0.624219367898567,0.1974223623818772,0.4493113192680376,0.6078602676415209,-0.320927232503891,-0.9362844824790955,-0.1427491903305054,-24.52301788330078,-43.21656036376953,15.08038330078125,2
1596230634.370125,23,0,102966.5616572917,2.124517327392454,-1.184491247410801,1.209389314067943,0.03256513178348541,-0.964909553527832,0.2840116918087006,0.2255125939846039,-0.03529691696166992,-0.1349787712097168,2,0.6307902026340335,0.1883951531687331,0.4416704250849756,0.6095395149945301,-0.3275341689586639,-0.9354002475738525,-0.1332219690084457,-24.38442230224609,-43.10750579833984,15.4364013671875,2
1596230634.407772,24,0,102966.5917552917,2.147556443846154,-1.237197860408932,1.198022604665794,0.1833260208368301,-1.118193030357361,0.4754350185394287,0.1992826759815216,0.02009260654449463,-0.2620365619659424,2,0.6400026952250255,0.1754101454188353,0.4355431186691021,0.6082188262384978,-0.3441220223903656,-0.9313207268714905,-0.1192556619644165,-24.30451965332031,-42.82841491699219,16.41522216796875,2
1596230634.430255,25,0,102966.6218532917,2.177606947545459,-1.287356177498693,1.188719514060559,0.4866116046905518,-0.2611672580242157,0.4147502779960632,0.1042217910289764,0.08113139867782593,-0.3700151443481445,2,0.6482075816064901,0.1664074644650843,0.4314343275974393,0.6049794373123962,-0.3579718172550201,-0.9278923273086548,-0.1042709723114967,-24.56130218505859,-42.6505126953125,17.02597045898438,2
1596230634.468111,26,0,102966.6519512917,2.251713701319338,-1.357808527481723,1.186554738742079,1.055092096328735,0.1482881903648376,-0.06210149079561234,-0.2597462832927704,0.1907999515533447,-0.04486644268035889,2,0.657216357665642,0.1686649535083545,0.4313396755834911,0.5946133361310233,-0.3663861155509949,-0.9270830154418945,-0.07923758774995804,-24.72322082519531,-41.73590087890625,18.29290771484375,2
1596230634.490396,27,0,102966.6820492917,2.332897357832587,-1.419008587183386,1.199556466746344,1.102325081825256,0.6616287231445312,-0.1927419453859329,-0.1729426383972168,0.007840633392333984,-0.006947755813598633,2,0.662868547451929,0.1821504307554349,0.4310935818726992,0.5844526160525421,-0.3586001694202423,-0.9318782687187195,-0.05485301837325096,-24.68129730224609,-41.53217315673828,18.99346923828125,2
1596230634.528188,28,0,102966.7121472917,2.394754061323422,-1.462619531708802,1.207955349718725,0.4191515743732452,0.2568461894989014,-0.3207673132419586,-0.04557046294212341,0.1066904067993164,0.2525386810302734,2,0.6660130518771527,0.1930449204395876,0.4320396370157168,0.5766299385947264,-0.3528571128845215,-0.9348922371864319,-0.03832054510712624,-24.79890441894531,-41.04355621337891,20.08465576171875,2
1596230634.55055,29,0,102966.7422452917,2.420586067766733,-1.486763827961555,1.220116305815318,0.3618042171001434,-0.1725240498781204,-0.2897070646286011,-0.08769562840461731,0.01213383674621582,-0.01086151599884033,2,0.667821296391065,0.1989913833845904,0.4278283913952402,0.5756562385859743,-0.3423245549201965,-0.9391393065452576,-0.02883429080247879,-24.62172698974609,-40.934814453125,20.2415771484375,2
1596230634.585176,30,0,102966.7723432917,2.465795104720899,-1.531289592386137,1.231707664931735,0.6500124335289001,0.1984169185161591,-0.4372327029705048,-0.2394353747367859,-0.04480659961700439,-0.1163575649261475,2,0.6717527803831563,0.2053762107031333,0.4225018285441665,0.5727661774120947,-0.3323684632778168,-0.94305819272995,-0.01313762832432985,-24.19564819335938,-41.04825592041016,21.09329223632812,2
1596230634.610817,31,0,102966.8024402917,2.528043586093194,-1.575561161957789,1.244879866607354,0.8264696598052979,0.6632700562477112,-0.4704005122184753,-0.1167103946208954,0.08652007579803467,0.03548073768615723,2,0.6731749814323473,0.218170207055832,0.4215754635497366,0.5670199453428216,-0.3201743960380554,-0.947357714176178,0.001525589730590582,-23.92105102539062,-40.79898834228516,21.41964721679688,2
1596230634.645573,32,0,102966.8325382917,2.612128230235142,-1.635069564086743,1.260521371178441,0.7615030407905579,0.5655072331428528,-0.5617062449455261,0.1554052233695984,0.01898467540740967,0.1459321975708008,2,0.6742628154925427,0.2348933586905309,0.4208653580973711,0.5595241825041868,-0.3046906888484955,-0.9522496461868286,0.01961046829819679,-23.57359313964844,-40.68444061279297,22.02264404296875,2
1596230634.671196,33,0,102966.8626362917,2.689145886868173,-1.699883067438793,1.26956879702001,0.6520177721977234,0.1250193268060684,-0.1299760341644287,0.3430837094783783,-0.03686338663101196,0.1891831159591675,2,0.6772772561250709,0.2457477238987087,0.4179897457282099,0.5533427747422266,-0.2942244410514832,-0.9549729824066162,0.03819284960627556,-23.39624786376953,-40.43966674804688,22.47998046875,2
1596230634.704765,34,0,102966.8927342917,2.728605935467755,-1.741211177028502,1.264286304103599,0.205035388469696,-0.3907981216907501,0.2873937785625458,0.004834234714508057,-0.07426273822784424,0.1460738182067871,2,0.6819032104867055,0.2461578338501658,0.4161620031565412,0.5488384053625317,-0.2973626554012299,-0.9533923864364624,0.05117133632302284,-23.60008239746094,-39.73713684082031,23.46994018554688,2
1596230634.730945,35,0,102966.9228322917,2.739301807436594,-1.763289481259039,1.257481907214821,0.2011184245347977,-0.2885769009590149,-0.03472917899489403,-0.2430190145969391,0.1642950773239136,0.04752302169799805,2,0.6863294262636176,0.2417303712933518,0.4132261979064815,0.5475057423572238,-0.3025210797786713,-0.9513172507286072,0.05896330624818802,-23.45085144042969,-39.77728271484375,23.63998413085938,2
1596230634.765023,36,0,102966.9529302917,2.766856770718096,-1.78885678471761,1.264503929286163,0.1703658103942871,0.2515376210212708,-0.3145394325256348,-0.009657859802246094,-0.08797538280487061,0.2225356101989746,2,0.6870012560351775,0.2462617803397795,0.4102807929778037,0.5468586078166275,-0.294386088848114,-0.9534580707550049,0.06523118168115616,-23.16165924072266,-39.72957611083984,24.17144775390625,2
1596230634.791395,37,0,102966.9830282917,2.759776045722977,-1.782893806892504,1.264675249519155,-0.3352214097976685,-0.490331768989563,0.3094927668571472,0.3080584108829498,-0.001085162162780762,0.2521525621414185,2,0.6866177942954111,0.2455118417534002,0.4103495227907586,0.5476251660103134,-0.2946096360683441,-0.9535096883773804,0.06344012171030045,-23.06455993652344,-39.63880157470703,24.09381103515625,2
1596230634.823071,38,0,102967.0131262917,2.695612356468834,-1.751546217468322,1.255738131254354,-0.8480496406555176,-1.41026782989502,0.5162891149520874,0.4028396010398865,-0.1534512042999268,0.3771202564239502,2,0.689362339597424,0.2294166676080677,0.4056613409645129,0.5546048553874834,-0.3048241138458252,-0.9507783651351929,0.05570488423109055,-22.86981964111328,-39.88720703125,24.00714111328125,2
1596230634.851525,39,0,102967.0432242917,2.561377268055829,-1.673979414442364,1.233395038771802,-1.61036491394043,-1.892579197883606,1.47299587726593,0.2581462860107422,-0.2179145812988281,0.2907936573028564,2,0.6913111644795888,0.1978313564543615,0.4006482036286856,0.5678315375696741,-0.3292753994464874,-0.94361811876297,0.03409674391150475,-22.8187255859375,-40.35109710693359,23.4368896484375,2
1596230634.885348,40,0,102967.0733222917,2.416332655880115,-1.606578406120766,1.183347839665602,-1.746256351470947,-2.847318410873413,1.931233763694763,0.3018690645694733,-0.1948379278182983,0.03591370582580566,2,0.6958437676950127,0.1501989765025644,0.3964475456381931,0.5797163889603885,-0.3775855004787445,-0.9258760809898376,0.01351656299084425,-23.14100646972656,-40.35707855224609,23.20001220703125,2
1596230634.912115,41,0,102967.1034202917,2.221662649846198,-1.547071555112132,1.111548782607873,-3.85838770866394,-5.581796646118164,3.302419900894165,0.6597277522087097,-0.9081724882125854,-0.2506077289581299,2,0.6993940346495965,0.07476758133411909,0.3809625733570333,0.6001044855944428,-0.4431491792201996,-0.8963862657546997,-0.01051558647304773,-23.72111511230469,-40.652099609375,22.69210815429688,2
1596230634.945202,42,0,102967.1335182917,1.95799227588317,-1.56087465437827,0.967352135425966,-5.09639835357666,-9.029642105102539,5.736273765563965,1.083357572555542,-0.8182318210601807,0.00455629825592041,2,0.7013014990831399,-0.07321931684798283,0.3395805567705976,0.6224952468216109,-0.5674540400505066,-0.823386013507843,-0.005630278028547764,-23.79308319091797,-41.1326904296875,22.40396118164062,2
1596230634.971986,43,0,102967.1636152917,1.665327379957967,-1.624071371950925,0.7762526971621192,-7.245742797851562,-10.28920936584473,6.890388965606689,0.9704427123069763,0.3502799868583679,1.130514025688171,2,0.672098712623991,-0.2593865482372344,0.2862850981025282,0.6316984917302866,-0.7125318646430969,-0.7006104588508606,0.03799612075090408,-25.21021270751953,-40.45641326904297,21.5537109375,2
1596230635.007569,44,0,102967.1937132917,1.32146521851074,-1.760048372979904,0.6134301995834464,-9.196473121643066,-13.20471572875977,4.90191125869751,0.9270519614219666,1.827638268470764,1.996588826179504,2,0.6028165397928301,-0.4620874614786182,0.1890206000703697,0.6223815121168197,-0.8030788898468018,-0.5756756663322449,0.1538252085447311,-25.95907592773438,-40.02803039550781,20.50112915039062,2
1596230635.032188,45,0,102967.2238112917,0.9583940941461769,-2.012757218916569,0.6271526279554239,-9.292017936706543,-17.0665340423584,0.5620895028114319,1.340571761131287,-0.1739059686660767,0.9401148557662964,2,0.5169781894490538,-0.6370976752278268,0.003343638299896506,0.5716895589598895,-0.7319013476371765,-0.5868416428565979,0.3463197946548462,-22.19755554199219,-43.33567047119141,17.98312377929688,2
1596230635.067661,46,0,102967.2539092917,0.6890721959206236,-2.317975409999804,0.7110131162441626,-5.816495895385742,-13.19561958312988,4.080663681030273,1.213065385818481,-0.9127262234687805,1.211305975914001,2,0.4213001199412475,-0.7615526947502246,-0.173480817861333,0.4609210371192216,-0.5558563470840454,-0.6526017189025879,0.5149126052856445,-17.55319213867188,-45.78403472900391,16.14315795898438,2
1596230635.092413,47,0,102967.2840072917,0.3685429044433279,-2.449057131397796,0.6894788743722799,-3.266043663024902,-10.58392524719238,7.100550174713135,-0.7160931825637817,1.098261117935181,1.194175004959106,2,0.2749694812274545,-0.8492975989132618,-0.2539830709738397,0.3722608671776835,-0.4926453232765198,-0.6361351609230042,0.5938292741775513,-18.21815490722656,-46.47296905517578,12.8228759765625,2
1596230635.124663,48,0,102967.3141052917,0.1409972956227142,-2.386557370568224,0.6195214986543415,-1.419171452522278,5.158157825469971,4.545725345611572,-2.343204498291016,1.901768088340759,2.406550645828247,2,0.1744494124892438,-0.8752263388576416,-0.2579319566949466,0.3701587927115278,-0.5579532980918884,-0.5806456804275513,0.5929074883460999,-22.04396057128906,-45.0126953125,13.2335205078125,2
1596230635.152544,49,0,102967.3442032917,0.1949162070700853,-2.290574172852303,0.5560731996378266,6.587655544281006,6.096659660339355,-3.085267782211304,-1.702250480651855,0.8848910331726074,1.121150970458984,2,0.1979821863037352,-0.8606690902867146,-0.2101841068545101,0.4193740468254502,-0.6386591196060181,-0.5278550982475281,0.5598964691162109,-28.73282623291016,-41.8856201171875,10.8311767578125,2
1596230635.187051,50,0,102967.3743012917,0.4743765315590152,-2.248983994356005,0.5398294546842392,3.466327667236328,4.666469573974609,-5.424165725708008,0.330260157585144,0.6692977547645569,1.02647852897644,2,0.3161534007509795,-0.8180039698312674,-0.1360468662775197,0.4608774599458301,-0.6679758429527283,-0.5139896869659424,0.5381669402122498,-27.75128173828125,-42.20967864990234,12.87094116210938,2
1596230635.212794,51,0,102967.4043992917,0.5950965190930899,-2.36123616543877,0.704085909935204,-5.529190540313721,-6.453788280487061,-7.165929794311523,1.435058116912842,0.5238321423530579,1.4112628698349,2,0.3799020718713595,-0.7915234243339918,-0.200215231455786,0.4348321720189974,-0.5362353324890137,-0.6473373770713806,0.5416698455810547,-20.06884765625,-45.18782806396484,14.78335571289062,2
1596230635.246737,52,0,102967.4344972917,0.7187799450022524,-2.58719815894744,0.8773854987938861,2.83126425743103,-4.275069713592529,-3.565314769744873,2.864229679107666,-0.5463100671768188,-1.605490207672119,2,0.4150580328022436,-0.7742361546252226,-0.2953071575043192,0.375604654488466,-0.3364741802215576,-0.7690703868865967,0.5434296131134033,-7.079742431640625,-49.31394195556641,11.42935180664062,2
1596230635.272892,53,0,102967.4645952917,0.7073197564494164,-2.712381696309297,0.8344114492270699,-1.999906539916992,-3.854131937026978,5.038093090057373,0.03231489658355713,-0.6119593977928162,0.9849088191986084,2,0.3903165669878003,-0.8080844183865927,-0.3039802922744192,0.3197633753751157,-0.2794945240020752,-0.7409013509750366,0.6106948852539062,-4.761276245117188,-49.03079986572266,13.86968994140625,2
1596230635.306357,54,0,102967.4946932917,0.4471607530895095,-2.60239445569683,0.7971848815517758,0.3208825588226318,-1.292468786239624,4.815886974334717,-1.573737144470215,0.1469719409942627,-0.790088415145874,2,0.2977610598286819,-0.8432869842265986,-0.3103649724644833,0.3223028154333841,-0.3587583303451538,-0.7153919339179993,0.5995891690254211,-12.54599761962891,-48.33029937744141,11.87472534179688,2
1596230635.333229,55,0,102967.5247902917,0.407228540136712,-2.557903960493181,0.7544940012167727,0.2913942039012909,0.9613953232765198,-1.910020470619202,-1.050520896911621,0.6921173334121704,0.0192873477935791,2,0.2838375246957285,-0.8505461161314818,-0.2914097058010013,0.3332985828570712,-0.4015456140041351,-0.684920072555542,0.6079849004745483,-15.35641479492188,-47.67783355712891,12.36065673828125,2
1596230635.367462,56,0,102967.5548882917,0.5197452294648055,-2.633793402470701,0.803925783049914,-0.02761435136198997,-0.3722124099731445,-3.264080286026001,0.2661288380622864,0.01942098140716553,-0.0615229606628418,2,0.3238638481454995,-0.835629489102532,-0.3065694424652338,0.3207038133974029,-0.3374056220054626,-0.7200856804847717,0.6063288450241089,-11.87261962890625,-48.36764526367188,12.50711059570312,2
1596230635.393279,57,0,102967.5849862917,0.5862397486519683,-2.687806426537973,0.8301356357830739,-0.1378154158592224,0.1478951424360275,0.0792330726981163,0.9547607898712158,-0.4115996360778809,0.1956281661987305,2,0.3444723922312006,-0.8273941534393379,-0.316678997235494,0.3105999272954933,-0.2958027720451355,-0.7380229234695435,0.6064846515655518,-9.461227416992188,-48.91059112548828,12.437255859375,2
1596230635.426754,58,0,102967.615084,0.5395992278725384,-2.652754413312591,0.8192582445567486,-0.1747778207063675,-0.1023327261209488,1.37347137928009,0.3149766325950623,-0.1009076833724976,0.006692409515380859,2,0.3301122729521744,-0.8321206116554279,-0.313288229950171,0.3169412612384436,-0.3206261396408081,-0.7306395769119263,0.6027976274490356,-9.908447265625,-48.88545989990234,12.18292236328125,2
1596230635.453575,59,0,102967.645182,0.502403560048471,-2.636097971079916,0.8124608816255336,-0.1851805746555328,-0.5520454049110413,0.2251336425542831,-0.2835753262042999,0.2251662015914917,-0.07432317733764648,2,0.3167960995621946,-0.8369544868694283,-0.3134875324676403,0.3176051726791448,-0.3330188989639282,-0.7259817719459534,0.6017051339149475,-10.91390228271484,-48.42609405517578,12.21475219726562,2
1596230635.485181,60,0,102967.67528,0.5057016521228803,-2.647339554714983,0.8157969619846172,0.09302473813295364,0.1869363337755203,-0.2103726863861084,-0.113885223865509,0.09008276462554932,-0.04324674606323242,2,0.3166143074333518,-0.8374921403098782,-0.3162251806372837,0.3136304442102179,-0.3250832259654999,-0.7282719612121582,0.6032754182815552,-11.12319183349609,-48.81497192382812,12.08160400390625,2
1596230635.514046,61,0,102967.705378,0.5093465727870902,-2.640281724832477,0.8103468878587863,0.1713327914476395,0.2755737900733948,0.1795965731143951,0.08494773507118225,0.001492738723754883,0.06964981555938721,2,0.3189141955625792,-0.8369663069474135,-0.3121145937600118,0.3168054518541372,-0.3312354385852814,-0.7245262861251831,0.6044377088546753,-11.04484558105469,-48.61907196044922,11.97036743164062,2
1596230635.546572,62,0,102967.735476,0.5010678496387402,-2.632674966644689,0.8085676236056472,-0.07002326101064682,-0.1197809055447578,0.1717977076768875,-0.02249699831008911,0.03830385208129883,-0.04718947410583496,2,0.3165213833552449,-0.8374526388842685,-0.3114326833162124,0.3185860040862055,-0.3364511728286743,-0.7232987880706787,0.6030254364013672,-11.40348052978516,-48.75952911376953,12.26629638671875,2
1596230635.574031,63,0,102967.765574,0.4976687084306253,-2.634361804429851,0.8046717473654753,0.1063204631209373,-0.1119748875498772,0.08382219821214676,-0.00477898120880127,0.09768986701965332,-0.01943397521972656,2,0.3145809373093144,-0.8390853488663105,-0.3105111552469766,0.3171081633736135,-0.3367998600006104,-0.7206031084060669,0.6060507893562317,-11.57501983642578,-48.75277709960938,12.24945068359375,2
1596230635.607095,64,0,102967.795672,0.4931156224433726,-2.634013632566101,0.8014681123206511,-0.01641262322664261,0.0005015376955270767,0.1878779828548431,-0.06422069668769836,-0.01313179731369019,-0.05260658264160156,2,0.3125130172524757,-0.8404221064161475,-0.309755506473174,0.3163506794821074,-0.3381309509277344,-0.7183781862258911,0.6079474091529846,-11.73396301269531,-48.64347839355469,12.40597534179688,2
1596230635.6343,65,0,102967.82577,0.4867873439478042,-2.62776594377019,0.7997692923433439,0.09750913083553314,0.03864977136254311,0.03177524358034134,-0.09071415662765503,-0.07210075855255127,-0.2715156078338623,2,0.3107057062967912,-0.8407762357745082,-0.3090308617136028,0.3178952348392417,-0.3425222039222717,-0.7171953320503235,0.6068854331970215,-11.87847137451172,-48.57695770263672,12.38555908203125,2
1596230635.667305,66,0,102967.855868,0.4917327499233045,-2.629429517709224,0.7990705970726035,-0.003441891632974148,0.2088968753814697,-0.07768148183822632,0.153292328119278,-0.1116262078285217,-0.08268570899963379,2,0.3124801969668372,-0.8404175161583329,-0.3081936015001033,0.3179171987641091,-0.3417575657367706,-0.716708242893219,0.6078909635543823,-11.92352294921875,-48.53545379638672,12.38412475585938,2
1596230635.694253,67,0,102967.885965,0.4840775883359111,-2.616763334645146,0.7962824166741588,0.079788938164711,0.06850384175777435,0.4068800508975983,0.05771306157112122,-0.1646559238433838,-0.2142155170440674,2,0.3110162147067904,-0.8401721489063044,-0.3062052173812986,0.3218978208963291,-0.3504295945167542,-0.7147610783576965,0.6052406430244446,-12.11641693115234,-48.56468200683594,12.27792358398438,2
1596230635.727095,68,0,102967.916063,0.4747080776691202,-2.616118585801921,0.7928790084234544,-0.009044297970831394,-0.4210443198680878,-0.008600922301411629,-0.09356507658958435,0.08802330493927002,0.04821252822875977,2,0.306929384273958,-0.842230389820226,-0.3060978389775893,0.3205409906239973,-0.3520378768444061,-0.7123767137527466,0.6071153283119202,-12.46772003173828,-48.45452880859375,12.31991577148438,2
1596230635.754544,69,0,102967.946161,0.4746498231725734,-2.617809718395153,0.7945243175330259,0.1259669065475464,0.3219766914844513,0.06079401820898056,-0.1039288938045502,0.002583980560302734,-0.03438377380371094,2,0.3067646210572962,-0.8421654573646578,-0.307098187994204,0.319912117677897,-0.3504241406917572,-0.713530421257019,0.6066944003105164,-12.55986785888672,-48.31249237060547,12.44671630859375,2
1596230635.786952,70,0,102967.976259,0.4768158515947717,-2.603808736040981,0.7898776665980999,0.07429268211126328,0.6854568123817444,-0.1696255505084991,-0.1392900943756104,0.05472666025161743,0.03542709350585938,2,0.3094671407266831,-0.8405443834074429,-0.30252599185802,0.325873235289057,-0.3605781197547913,-0.710267186164856,0.6045695543289185,-12.50689697265625,-48.39236450195312,12.61935424804688,2
1596230635.814752,71,0,102968.006357,0.4915039738448364,-2.588212492028811,0.7891267977412104,0.3297970294952393,0.9294436573982239,-0.2148232311010361,0.06194415688514709,-0.05149161815643311,-0.1205587387084961,2,0.3179044950380077,-0.8358228607359802,-0.2973212105954819,0.3345700927257595,-0.3702431619167328,-0.7097383737564087,0.5993262529373169,-12.5543212890625,-48.31922149658203,12.71575927734375,2
1596230635.848422,72,0,102968.036455,0.496730138004935,-2.573059699469592,0.7860580525196409,0.03222111240029335,0.4474309980869293,-0.03695772960782051,-0.03279384970664978,0.001519918441772461,0.004693508148193359,2,0.3220779917229316,-0.8330700776464373,-0.2926534305952599,0.3414881063341307,-0.380452573299408,-0.7075732350349426,0.5954799652099609,-12.6451416015625,-48.43716430664062,12.81069946289062,2
1596230635.874916,73,0,102968.066553,0.5086800086906912,-2.568188428368753,0.7845938486489589,0.3132419288158417,0.6179793477058411,-0.4038571119308472,-0.007453501224517822,0.009869873523712158,0.01077866554260254,2,0.3276391031535916,-0.830600422360005,-0.289162647777513,0.3451672574899656,-0.3839101493358612,-0.7065378427505493,0.5944888591766357,-12.66397094726562,-48.34174346923828,12.8876953125,2
1596230635.906944,74,0,102968.096651,0.5265340261677391,-2.54805534592619,0.78480356054784,0.1903612911701202,1.44126832485199,-0.2004970908164978,0.06402525305747986,-0.153264045715332,0.1467282772064209,2,0.3379207889151818,-0.8240559506492218,-0.2827751389119542,0.3560614566581782,-0.3957179188728333,-0.7066861987113953,0.586517333984375,-12.35944366455078,-48.41780853271484,12.94436645507812,2
1596230635.935096,75,0,102968.126749,0.5395833951448273,-2.509920641375366,0.7842101380533768,0.1397565901279449,2.053524255752563,-0.4552507698535919,-0.1446255743503571,-0.0180390477180481,0.1275196075439453,2,0.3485215623705787,-0.8149869905749336,-0.2735891824362524,0.3734675279983138,-0.4180389046669006,-0.7062662243843079,0.5713421702384949,-12.74877166748047,-48.59615325927734,12.48941040039062,2
1596230635.968893,76,0,102968.156847,0.5676087627395123,-2.454976677186972,0.7867723842892889,0.5700339078903198,2.564012765884399,-0.5657768845558167,-0.06555142998695374,0.06875842809677124,-0.03548264503479004,2,0.3673951209635354,-0.798800006204476,-0.2594580262126002,0.3995258394367341,-0.4476352632045746,-0.7080778479576111,0.5461212396621704,-12.80581665039062,-48.54893493652344,12.42318725585938,2
1596230635.995199,77,0,102968.186944,0.5983599234468132,-2.402745919309401,0.7856550530275966,0.4222527146339417,2.421926498413086,-0.5061714649200439,0.1694941520690918,0.03876799345016479,0.1834838390350342,2,0.3859983833115493,-0.7824967051587421,-0.2428024439782349,0.4239709226361651,-0.4760690033435822,-0.707288384437561,0.5225917100906372,-12.96962738037109,-48.34098052978516,12.20071411132812,2
1596230636.028895,78,0,102968.217042,0.6235744194617706,-2.347096620195828,0.7830996055126104,0.5080745220184326,2.44260311126709,-0.2011165022850037,0.200570285320282,-0.0003274679183959961,0.1468905210494995,2,0.4019885325634956,-0.7659563841638962,-0.2252396244552917,0.4483114603587681,-0.5056865811347961,-0.7054795622825623,0.4965679347515106,-13.21166229248047,-48.09565734863281,12.21994018554688,2
1596230636.055578,79,0,102968.24714,0.6431768224768313,-2.28832311695782,0.7740021643074871,0.6239047050476074,2.495325326919556,-0.006444700062274933,0.2057357430458069,0.039112389087677,0.03892266750335693,2,0.4146328181078749,-0.750455412219982,-0.2048475120870441,0.4721587232869293,-0.5387951135635376,-0.6990028619766235,0.4702073931694031,-14.01979827880859,-48.20973968505859,12.17578125,2
1596230636.089567,80,0,102968.277238,0.6652421480273482,-2.223092551726005,0.7577900546511267,0.8738589882850647,2.943889617919922,0.1563396155834198,0.05611354112625122,-0.0154266357421875,0.01134204864501953,2,0.4269080024354778,-0.7336235091538371,-0.1789209071584246,0.4975272730688166,-0.5772298574447632,-0.6873179078102112,0.4409078061580658,-14.27839660644531,-48.09182739257812,11.97640991210938,2
1596230636.115662,81,0,102968.307336,0.6950180022968913,-2.144685931659206,0.7374900185319,1.173589825630188,3.795276641845703,-0.0264899879693985,-0.4614572525024414,0.1590591073036194,0.03131258487701416,2,0.4410289123438375,-0.7116252782054951,-0.1457976680387796,0.5270920136942608,-0.62158203125,-0.6724322438240051,0.4018340706825256,-15.87310791015625,-47.57009124755859,12.5072021484375,2
1596230636.145615,82,0,102968.337434,0.7576189279364833,-2.04658827361227,0.7174348031707509,2.33849048614502,5.500676155090332,-0.2370963841676712,-0.5677716732025146,0.3896337747573853,0.1323697566986084,2,0.4654564850456647,-0.6752159712054389,-0.09824953516733845,0.5637204348905308,-0.6698043346405029,-0.6574539542198181,0.3451327085494995,-17.62400817871094,-46.90899658203125,12.69342041015625,2
1596230636.175998,83,0,102968.367532,0.8665937021389339,-1.931048619102231,0.6883309220319445,3.372891187667847,6.643612384796143,-0.3618637025356293,-0.2368521690368652,0.2326337099075317,0.3368390798568726,2,0.4992676547314135,-0.6219766783322972,-0.02693948402966384,0.6026202169926924,-0.7227314114570618,-0.6352490186691284,0.2722463607788086,-18.84454345703125,-46.51876831054688,13.31192016601562,2
1596230636.205818,84,0,102968.39763,1.001352272260841,-1.812934687509797,0.6807521484626149,3.234036445617676,6.961960792541504,-1.319149732589722,-0.1250993013381958,0.1838048696517944,0.7091165781021118,2,0.536811654470007,-0.5522675149126948,0.0483859729877763,0.6359974608011741,-0.7544297575950623,-0.6293777227401733,0.1863323152065277,-21.09796905517578,-44.95816040039062,14.19314575195312,2
1596230636.237066,85,0,102968.427728,1.122812938423721,-1.668046312390439,0.7132126761433408,2.620560169219971,7.708077430725098,-1.609314322471619,0.0941460132598877,0.07657319307327271,0.7376726865768433,2,0.5680487377575109,-0.4626402759648394,0.1163323973560912,0.6706351306219387,-0.7526906132698059,-0.6542667746543884,0.07343078404664993,-21.93663787841797,-44.59070587158203,14.2457275390625,2
1596230636.266047,86,0,102968.457826,1.239464950587805,-1.51488124222827,0.7471113299300137,3.275586128234863,7.394635200500488,-0.7565805315971375,0.2165403962135315,-0.01151823997497559,0.3557618856430054,2,0.5873836253097886,-0.3667151139189916,0.1888138533624197,0.6963116296863069,-0.7325083017349243,-0.6795223355293274,-0.04100100323557854,-23.86006164550781,-44.51932525634766,12.7701416015625,2
1596230636.296305,87,0,102968.487924,1.375823509785891,-1.394755638553874,0.7847624822593841,3.354598760604858,7.041577816009521,-1.181300163269043,0.06807035207748413,0.2376984357833862,0.3408596515655518,2,0.603217494387614,-0.2723425859447039,0.2599763903500781,0.7031149101801444,-0.6966208815574646,-0.7066571712493896,-0.1239163428544998,-24.83563232421875,-44.11441802978516,12.69015502929688,2
1596230636.326254,88,0,102968.518022,1.492279796511087,-1.266447853420909,0.8468489726974864,2.722875118255615,6.799076080322266,-1.446052432060242,-0.5437179207801819,0.2943863272666931,0.544472336769104,2,0.6094321823097263,-0.1713157730811708,0.3203381460679711,0.7047174674777625,-0.6319071650505066,-0.7491970658302307,-0.1984866410493851,-25.91456604003906,-43.04026794433594,11.75534057617188,2
1596230636.35657,89,0,102968.548119,1.581711168822685,-1.139435263307822,0.9317131424865038,2.935239315032959,6.609222888946533,-2.823013305664062,-0.3358263969421387,0.3873980045318604,0.4348886013031006,2,0.6086126516707946,-0.0699885956168359,0.3644800540143879,0.7013178503076833,-0.5418228507041931,-0.8026429414749146,-0.2493844777345657,-26.09709930419922,-43.4024658203125,11.10903930664062,2
1596230636.386434,90,0,102968.578217,1.621148540921069,-0.9508409228301736,1.065512319876962,2.366767644882202,8.174668312072754,-3.413224935531616,0.3811986148357391,0.07165431976318359,0.7375618815422058,2,0.5969042294659426,0.05556400314785309,0.3948250708225262,0.696226354653136,-0.3939752578735352,-0.8750370144844055,-0.2812359631061554,-23.64696502685547,-45.03820037841797,9.486358642578125,2
1596230636.4167,91,0,102968.608315,1.616652186675677,-0.749202429665059,1.148294106067302,1.534781098365784,4.078042984008789,-1.09745192527771,0.4389257431030273,-0.3899860382080078,-0.01118659973144531,2,0.571291811801611,0.1533032633760494,0.4278128520853656,0.683447187091706,-0.2792626023292542,-0.9120658040046692,-0.3002475500106812,-22.50161743164062,-45.90984344482422,8.2867431640625,2
1596230636.446646,92,0,102968.638413875,1.638162377625482,-0.6889243818201299,1.199771565932893,1.053843021392822,1.931535124778748,-0.7738589644432068,0.8948856592178345,0.3561751842498779,0.2724263668060303,2,0.5664962731319678,0.1978441180983679,0.4373616586808322,0.6698167838733236,-0.2304888814687729,-0.9319562911987305,-0.2798793613910675,-21.24142456054688,-46.52363586425781,7.99853515625,2
1596230636.476994,93,0,102968.668511875,1.657921166855591,-0.6488616615906848,1.224289093896087,0.8974788188934326,2.247697114944458,-0.04001452401280403,0.08050048351287842,0.4235407114028931,0.4672698974609375,2,0.5603198389855283,0.225263831809232,0.4481265706366036,0.6591514117723032,-0.2052224725484848,-0.9405646324157715,-0.2705957591533661,-20.8125,-46.47736358642578,8.438873291015625,2
1596230636.506821,94,0,102968.698609875,1.692210176281009,-0.6009466100281952,1.267555972423057,1.683595895767212,3.238202571868896,-1.203917980194092,-0.3050857484340668,0.243874728679657,0.5395929217338562,2,0.5535399877859072,0.2654143762030036,0.460083624066862,0.641460675514781,-0.1688435971736908,-0.9543738961219788,-0.2462973743677139,-21.23344421386719,-46.53038024902344,8.52874755859375,2
1596230636.537437,95,0,102968.728707875,1.647329871215246,-0.4381753718848375,1.328964963696289,1.49820864200592,4.484176635742188,-1.263397097587585,-0.02558496594429016,0.1257405877113342,0.7192675471305847,2,0.5345450885383002,0.3253200050496715,0.4726698471599592,0.6204931319084143,-0.1016090363264084,-0.9709010124206543,-0.2168568819761276,-20.55664825439453,-46.61647796630859,8.72882080078125,2
1596230636.566949,96,0,102968.758805875,1.571697270247453,-0.2352452817963074,1.384298636584163,1.41719388961792,3.887204170227051,-1.044483542442322,0.6763017177581787,-0.1053509116172791,0.2925426959991455,2,0.5118640002525763,0.3844987886396742,0.4879331626343711,0.5933609642118871,-0.04321769624948502,-0.982659637928009,-0.1803118586540222,-19.8658447265625,-46.83636474609375,8.57037353515625,2
1596230636.597043,97,0,102968.788903875,1.466199878560957,-0.05093640528433959,1.413843396662597,0.2626078128814697,1.451197624206543,-0.1990387886762619,1.038798689842224,-0.4790027141571045,0.2907888889312744,2,0.4954436733439904,0.420097267729905,0.4963624647760763,0.5759152387075577,-0.007958449423313141,-0.9877081513404846,-0.1561077088117599,-19.56391143798828,-47.05632781982422,8.617584228515625,2
1596230636.627281,98,0,102968.819001875,1.517375435978412,-0.1107230951584601,1.421336253029557,0.26726433634758,-2.127453327178955,0.3894670605659485,1.039765357971191,-0.1890096664428711,-0.292206346988678,2,0.5015562338912674,0.4176665580024574,0.4944349814149399,0.5740470028875448,-0.01645342260599136,-0.9888516068458557,-0.1479919850826263,-19.47207641601562,-47.15230560302734,8.46234130859375,2
1596230636.65738,99,0,102968.849099875,1.589374934598917,-0.270899872397081,1.414929580471057,-0.3994735479354858,-3.237733840942383,0.6324365139007568,0.5517537593841553,-0.2699533700942993,-0.1780064105987549,2,0.524337123635545,0.3876632278782859,0.4759333385731164,0.590148603652876,-0.0415412113070488,-0.987877368927002,-0.1495756059885025,-19.29998779296875,-46.89844512939453,10.24844360351562,2
1596230636.687466,100,0,102968.879197875,1.771406166920798,-0.5435744119922403,1.39704292180978,0.1485002040863037,-2.784028291702271,1.374606966972351,-0.4345230758190155,-0.4269809126853943,-0.7096396684646606,2,0.5511659877830142,0.3496204881621015,0.4619965793164974,0.6004505825330149,-0.08941394835710526,-0.9849427938461304,-0.1479631364345551,-19.72728729248047,-46.79399108886719,10.94940185546875,2
1596230636.721715,101,0,102968.909294875,1.919603686662448,-0.7355696287567196,1.392951470332848,0.5988776087760925,-0.3642300665378571,0.009845997206866741,-0.5151493549346924,0.1832864284515381,0.3361408114433289,2,0.5693285811290023,0.3320852665756244,0.4539786729829317,0.5995729069922164,-0.1187074109911919,-0.9842272400856018,-0.1311686784029007,-20.32767486572266,-46.02229309082031,12.88272094726562,2
1596230636.747716,102,0,102968.939392875,1.933331142777192,-0.7622373620454603,1.409429515862561,0.3375460505485535,-0.91779625415802,-0.4174072742462158,-0.1429039239883423,0.1741124391555786,0.2740559577941895,2,0.5747883873087862,0.3339364305800252,0.4450935602907747,0.5999970676651398,-0.110947459936142,-0.9870086312294006,-0.1162095367908478,-20.19122314453125,-45.87963104248047,13.3148193359375,2
1596230636.777925,103,0,102968.969490875,1.925330238360459,-0.7845723557415526,1.420970878492277,0.2033748626708984,-1.019251465797424,0.0626247227191925,0.3944560885429382,-0.007195353507995605,-0.0338749885559082,2,0.5821655850678399,0.3290383363088515,0.4324260680546975,0.6048344814575792,-0.1054596900939941,-0.988797128200531,-0.1056340113282204,-19.01077270507812,-45.75243377685547,14.7867431640625,2
1596230636.807837,104,0,102968.999588875,2.019025099775169,-0.9193838871850069,1.409388682056135,-0.01368178799748421,-1.525570273399353,0.8458302617073059,-0.1225862801074982,-0.2301757335662842,-0.02004212141036987,2,0.5951486596511951,0.311574506664719,0.4249953528532173,0.6067111094227881,-0.1277994066476822,-0.9870020151138306,-0.09743879735469818,-19.18018341064453,-45.95823669433594,15.05209350585938,2
1596230636.838153,105,0,102969.029686875,2.060826880032507,-0.9945376117530254,1.397865800318237,0.05457960814237595,-0.6065167784690857,0.02000485733151436,-0.3212248980998993,0.1480531692504883,0.1265580654144287,2,0.6040627080851573,0.2970327524459602,0.4190477191250795,0.6093265959694657,-0.1442822813987732,-0.9850847125053406,-0.09375957399606705,-19.25108337402344,-45.23725891113281,15.84024047851562,2
1596230636.869766,106,0,102969.059784875,2.071782885218663,-1.013820807569304,1.404529236883012,0.1360898166894913,-0.2634294033050537,-0.1645801514387131,-0.09669321775436401,0.01953959465026855,0.05788332223892212,2,0.6067088462944774,0.2969182496923704,0.4143053586753641,0.6099958833001113,-0.1404876261949539,-0.9862094521522522,-0.08748785406351089,-19.09690093994141,-45.26840972900391,16.05813598632812,2
1596230636.898199,107,0,102969.089882875,2.080242123777329,-1.033540511837609,1.405706750495,0.02585621923208237,-0.3966114223003387,0.1295213401317596,0.1822910308837891,-0.03879630565643311,-0.06517338752746582,2,0.6095640717182162,0.2939021743438249,0.4104942998078616,0.6111853850194859,-0.1411877274513245,-0.9864036440849304,-0.08410631120204926,-18.76423645019531,-45.09368133544922,16.67587280273438,2
1596230636.928236,108,0,102969.119980875,2.11029590218563,-1.075701344189855,1.398102735607203,0.08752091228961945,-0.3321767747402191,0.4087282121181488,0.08404561877250671,-0.03134888410568237,-0.01832389831542969,2,0.6136522672334818,0.2874189558248047,0.4093505757571969,0.6109447433767405,-0.1512036174535751,-0.9851254820823669,-0.08164247870445251,-18.64618682861328,-45.19755554199219,16.71502685546875,2
1596230636.958492,109,0,102969.150078875,2.145373295787802,-1.114936153706443,1.388133972729436,-0.04502402991056442,-0.1017192527651787,0.4161830544471741,0.002277761697769165,-0.04547905921936035,0.1001261472702026,2,0.6165750850674847,0.2825794507810047,0.4113348370665763,0.6089234222480016,-0.1630991250276566,-0.9833635687828064,-0.07996803522109985,-19.34931182861328,-45.16350555419922,16.94223022460938,2
1596230636.988399,110,0,102969.180176875,2.160389351801791,-1.128731082534245,1.372569652888602,-0.1744476407766342,0.07511512190103531,0.5092610716819763,-0.2552609443664551,0.3194233179092407,0.1736797690391541,2,0.6172386733140161,0.2772942261074659,0.416852046125173,0.6069256865248405,-0.1780004352331161,-0.9804173707962036,-0.08424866199493408,-19.63751220703125,-44.78823089599609,16.93984985351562,2
1596230637.020969,111,0,102969.210274875,2.152784352410678,-1.115395721460592,1.370275960930314,-0.1544280052185059,0.4651847183704376,-0.4473733305931091,-0.3639731407165527,-0.1570499539375305,0.1287097334861755,2,0.6154918239008484,0.2781511748555685,0.4194196444242679,0.6065384638061004,-0.1788799464702606,-0.9799630641937256,-0.08760347962379456,-20.20447540283203,-44.52789306640625,16.75906372070312,2
1596230637.048672,112,0,102969.240371875,2.089238513815624,-1.035122715809325,1.372560738675161,-0.428447961807251,0.5859098434448242,0.2211440801620483,0.248379647731781,-0.1194819211959839,-0.002801895141601562,2,0.6075433223608209,0.2839540817093795,0.4238936659195405,0.6087491098321763,-0.1693539470434189,-0.9804155826568604,-0.1005223840475082,-19.85662841796875,-44.82433319091797,16.44204711914062,2
1596230637.078922,113,0,102969.270469875,2.08745312314995,-1.028347037542514,1.354909505882447,-0.2756167948246002,-0.1172442361712456,0.4749165773391724,0.3441637456417084,0.1740807294845581,-0.04997456073760986,2,0.605722196814948,0.2789412632603978,0.4312875067916199,0.6076870296513203,-0.1834628582000732,-0.9767867922782898,-0.1105847805738449,-20.68745422363281,-45.00839996337891,15.55465698242188,2
1596230637.108787,114,0,102969.300567875,2.072940493692192,-1.023881875121548,1.336376899235036,-0.5621916055679321,-0.3419895470142365,0.6157314777374268,-0.0303158164024353,-0.2403457760810852,0.04312604665756226,2,0.6059929556223604,0.2690239671020252,0.4343627543122933,0.6096946921054138,-0.1983965635299683,-0.9726493358612061,-0.1207972839474678,-21.35707092285156,-44.71382904052734,15.09732055664062,2
1596230637.139048,115,0,102969.330665875,2.064002959792115,-1.013967798958748,1.311573968612742,-0.2665401697158813,0.3652229905128479,0.5474998354911804,-0.1376577615737915,0.1455860137939453,-0.1050410866737366,2,0.6038311353215778,0.2601024675424656,0.4427956738409117,0.6096448697885797,-0.2176073640584946,-0.966589629650116,-0.1354693323373795,-21.98084259033203,-44.67282867431641,14.37567138671875,2
1596230637.170048,116,0,102969.360763875,2.063570299092627,-1.003092806751176,1.298944614213773,-0.4196110367774963,0.18775574862957,0.2369664013385773,-0.1512551307678223,0.2187188863754272,0.2267611026763916,2,0.6007957953190471,0.2585617917163338,0.4500646206217419,0.6079738828760829,-0.226396232843399,-0.9632753133773804,-0.1443804204463959,-22.81742858886719,-44.60443878173828,13.79083251953125,2
1596230637.199139,117,0,102969.390861875,2.027917941787781,-0.9653802229118614,1.288402430608925,-0.3867857754230499,0.1000218242406845,-0.006367283873260021,-0.1768510639667511,-0.09282910823822021,0.02738380432128906,2,0.5962040153313555,0.255438180920356,0.4539113864988954,0.6109473451755163,-0.2291290313005447,-0.960391104221344,-0.1585842221975327,-23.11470031738281,-44.59912872314453,13.39895629882812,2
1596230637.229168,118,0,102969.420959875,1.98567455478594,-0.9213120297468926,1.278891910886198,-0.4998877644538879,0.1515639126300812,0.09100183099508286,-0.01776796579360962,0.03099638223648071,-0.1398091316223145,2,0.5908016719079301,0.2528500376056834,0.4571123918723028,0.6148728327902484,-0.2291842997074127,-0.9576975703239441,-0.1740404814481735,-23.13580322265625,-44.81136322021484,12.40631103515625,2
1596230637.259442,119,0,102969.451057875,1.97015392184399,-0.8954620031130194,1.270345589101563,-0.5546022057533264,0.8367092609405518,0.1526114493608475,-0.01369521021842957,0.1321357488632202,0.139398992061615,2,0.5860562920605663,0.2530411577757771,0.462682305342661,0.6151694532626542,-0.2309893667697906,-0.9552031755447388,-0.185016393661499,-23.44304656982422,-44.85732269287109,12.23171997070312,2
1596230637.28934,120,0,102969.481155875,1.928708047978527,-0.8398692622634512,1.256399480185814,-0.1889001578092575,0.1270362585783005,-0.06098107248544693,-0.005336195230484009,-0.07102513313293457,-0.2899198532104492,2,0.5768939891173623,0.252930845742959,0.4704894284829415,0.6179475849480772,-0.2302490323781967,-0.9509830474853516,-0.2064386308193207,-23.80247497558594,-45.09237670898438,10.89453125,2
1596230637.320837,121,0,102969.511253875,1.915577047666169,-0.8318743540383924,1.259010443661643,-0.1646769940853119,-0.330102264881134,-0.02790365554392338,0.04730439186096191,-0.04446834325790405,-0.0175553560256958,2,0.5769749312824159,0.2525869725908814,0.4679109953779318,0.6199669778607109,-0.2267546653747559,-0.9517872333526611,-0.2065995037555695,-23.78923034667969,-45.14365386962891,10.85531616210938,2
1596230637.349642,122,0,102969.541351875,1.906410454138276,-0.8249094489950499,1.245628544055719,-0.3614207804203033,0.1682847589254379,0.3319743871688843,0.04164609313011169,0.06114721298217773,-0.02542018890380859,2,0.5749087279741716,0.2471451076684121,0.4712623719196222,0.6215393196374177,-0.2346449047327042,-0.9475971460342407,-0.2167984992265701,-23.8359375,-45.24662017822266,10.30865478515625,2
1596230637.379816,123,0,102969.571449875,1.901756205891606,-0.8156269568590609,1.235858565073796,-0.1949248611927032,-0.0512486919760704,0.2065798193216324,-0.01049706339836121,0.0060882568359375,-0.01390087604522705,2,0.5720924752742029,0.245069484535856,0.4755183094608816,0.621718294333402,-0.2393525242805481,-0.9444307684898376,-0.2253022938966751,-24.19835662841797,-45.15121459960938,9.998046875,2
1596230637.409794,124,0,102969.601546875,1.907202862894506,-0.8263837780774573,1.226083001445008,-0.2138182520866394,-0.1358766704797745,0.278285801410675,0.01210743188858032,0.03055620193481445,-0.02723807096481323,2,0.5727900522049,0.2396497088028758,0.4771645293257939,0.6219274257634665,-0.2485407441854477,-0.9411723613739014,-0.2289591431617737,-24.40232086181641,-45.11826324462891,9.545166015625,2
1596230637.440011,125,0,102969.6316444167,1.895679131919311,-0.8080207044509933,1.214197507288827,-0.40025994181633,0.6933245658874512,0.08981142938137054,0.01570847630500793,0.05048084259033203,0.004423379898071289,2,0.568263134555228,0.2376525484916946,0.4824845086969253,0.6227416201632954,-0.2523640394210815,-0.9370895624160767,-0.2411965578794479,-24.69731140136719,-44.79515838623047,9.42059326171875,2
1596230637.470444,126,0,102969.6617424167,1.879983902275491,-0.7743504888063339,1.201256911997659,-0.2797993421554565,0.3468517661094666,0.1825289875268936,-0.1418077051639557,-0.0062255859375,-0.115483283996582,2,0.5602016148161528,0.2388988883099021,0.4910456755281944,0.6228768812713251,-0.2525599598884583,-0.9324938058853149,-0.2582029402256012,-25.25940704345703,-44.91434478759766,8.189117431640625,2
1596230637.500222,127,0,102969.6918404167,1.876627743350917,-0.7612864467471133,1.201377756610724,-0.1686283648014069,0.3694095015525818,-0.005523688159883022,-0.01950368285179138,0.04586619138717651,0.05209362506866455,2,0.5574062022880522,0.2420721761609116,0.4936146530218182,0.6221286134473208,-0.2490876764059067,-0.9325374364852905,-0.2613987624645233,-25.50876617431641,-44.90200805664062,8.0467529296875,2
1596230637.530217,128,0,102969.7219384167,1.870376244957997,-0.7452596041371267,1.197410750202581,0.01345131546258926,0.2969207763671875,0.08048933744430542,-0.05214047431945801,-0.0556909441947937,-0.0144582986831665,2,0.5536249102748628,0.2438493946732703,0.4973175482372938,0.6218619764074551,-0.2473734319210052,-0.9310977458953857,-0.2680738568305969,-25.50297546386719,-44.81974029541016,7.37481689453125,2
1596230637.560682,129,0,102969.7520364167,1.865566425516441,-0.7380352111540277,1.194243217175218,-0.1591880470514297,0.05238285288214684,-0.1092967242002487,-0.04479086399078369,0.06376904249191284,-0.02735006809234619,2,0.5519462782699254,0.2435940034678358,0.4987684520375492,0.6222921119912299,-0.2474135309457779,-0.9299376606941223,-0.2720345258712769,-25.55706787109375,-44.92460632324219,7.17462158203125,2
1596230637.590309,130,0,102969.7821344167,1.847797430596892,-0.7144471767849175,1.196722709493212,-0.08209973573684692,0.3846957981586456,-0.197425052523613,-0.1044565141201019,0.02465164661407471,0.02304708957672119,2,0.5486172671622535,0.2469685728223697,0.4989828509555077,0.6237320687491088,-0.239416778087616,-0.9308465123176575,-0.2760512232780457,-25.43483734130859,-45.13125610351562,6.877685546875,2
1596230637.620775,131,0,102969.8122324167,1.842300651187137,-0.6952530923857881,1.202731086218747,0.297835111618042,0.2973105013370514,-0.2635295689105988,-0.01711800694465637,0.006809830665588379,-0.03381812572479248,2,0.5454465812500769,0.2536532736792397,0.5007347857835942,0.6224250248052492,-0.2304878681898117,-0.9330252408981323,-0.276296079158783,-25.21980285644531,-45.23381805419922,6.77197265625,2
1596230637.650614,132,0,102969.8423304167,1.829182430082279,-0.6847412804502974,1.200798468642658,0.01621485874056816,-0.03609761968255043,-0.03706361353397369,-0.001432895660400391,-0.02153021097183228,-0.01720631122589111,2,0.544168012776873,0.2526486789574891,0.500081032983994,0.6244748675604059,-0.2287106961011887,-0.9323281049728394,-0.280099630355835,-25.04301452636719,-45.28582763671875,6.71697998046875,2
1596230637.680837,133,0,102969.8724284167,1.826599179317067,-0.6790418438530397,1.201724309172429,-0.1193911284208298,0.1515149623155594,0.009409470483660698,0.05283764004707336,0.0106537938117981,0.01338237524032593,2,0.5432199985954818,0.2540643046271744,0.5005506433431662,0.6243496339965815,-0.2265683263540268,-0.9326625466346741,-0.2807267308235168,-25.17063140869141,-45.36834716796875,6.466949462890625,2
1596230637.71105,134,0,102969.9025254167,1.824981937355157,-0.6721747236205837,1.198808254296343,-0.07490681111812592,0.1839790195226669,0.07007966190576553,0.01775816082954407,0.003480315208435059,-0.05073201656341553,2,0.5412249924391291,0.2547038625144051,0.5027662561856994,0.6240413696303042,-0.2263278365135193,-0.9316065907478333,-0.2844029068946838,-24.92572021484375,-45.27405548095703,6.313812255859375,2
1596230637.741146,135,0,102969.9326234167,1.824533074907681,-0.6675085815864362,1.195300006665508,-0.06024858355522156,0.1180318668484688,0.03666761144995689,-0.01195082068443298,0.02888530492782593,-0.04036623239517212,2,0.5395261772412567,0.2547568953497,0.5049166833209013,0.6237544478549951,-0.2270200401544571,-0.9303257465362549,-0.2880208492279053,-25.01414489746094,-45.35160827636719,6.08544921875,2
1596230637.771096,136,0,102969.9627214167,1.825814319784233,-0.6628804455954524,1.1956387541931,0.06501432508230209,0.3140014410018921,-0.008781056851148605,-0.02390763163566589,0.05450838804244995,-0.01369225978851318,2,0.5382484757329693,0.2566681202652883,0.5064637966188514,0.6228198543536554,-0.2254907339811325,-0.930449903011322,-0.2888201177120209,-25.37156677246094,-44.98538970947266,5.85888671875,2
1596230637.80374,137,0,102969.9928194167,1.825607746020212,-0.6538322636033579,1.196540412663216,0.0097536351531744,0.170420229434967,-0.02243475988507271,0.01194852590560913,0.006319522857666016,-0.04627686738967896,2,0.5361297556989132,0.2597567847720406,0.5085661527553662,0.6216525738900998,-0.2223579436540604,-0.9307798743247986,-0.2901825904846191,-25.37118530273438,-45.29104614257812,5.685028076171875,2
1596230637.831194,138,0,102970.0229174167,1.826381982932728,-0.653245156168932,1.197188575289974,0.05425019189715385,-0.05449068173766136,-0.0006387259345501661,0.03981587290763855,0.00707852840423584,0.008972465991973877,2,0.5359884413432355,0.2603833313752437,0.5087746818482036,0.6213415418720822,-0.221820741891861,-0.9310166835784912,-0.2898338139057159,-25.37765502929688,-45.35680389404297,5.7303466796875,2
1596230637.861325,139,0,102970.0530154167,1.83028503997702,-0.6605518255884035,1.198313852485355,0.04207354411482811,-0.1869232952594757,0.02025743573904037,0.01007002592086792,0.01060688495635986,0.02207750082015991,2,0.5375253426699239,0.2595719511028565,0.507696873856883,0.6212349292628915,-0.2232895493507385,-0.9314267635345459,-0.287377804517746,-25.20736694335938,-45.23748016357422,5.731231689453125,2
1596230637.89133,140,0,102970.0831134167,1.829193766095375,-0.6659136260882083,1.197942593914492,-0.0275430828332901,-0.2086943835020065,-0.02476676367223263,-0.02732396125793457,0.008012890815734863,0.01443701982498169,2,0.5389638249000759,0.2574757227317802,0.506023581064348,0.6222254549625382,-0.2250409126281738,-0.9312915802001953,-0.2864485085010529,-25.19235992431641,-45.08167266845703,5.902923583984375,2
1596230637.921584,141,0,102970.1132114167,1.828383879032159,-0.6692341091792953,1.197546724229765,-0.005274814553558826,-0.0710190162062645,0.04394549876451492,-0.04886490106582642,0.04000192880630493,0.01717501878738403,2,0.5398417944327069,0.2560791589115524,0.5049920636097329,0.6228782577754534,-0.2262193560600281,-0.9311473369598389,-0.2859885990619659,-25.18732452392578,-45.23750305175781,6.09320068359375,2
1596230637.95336,142,0,102970.1433094167,1.831455246160392,-0.6739224489486064,1.19674849169518,-0.01782895624637604,-0.07139957696199417,0.05172698944807053,-0.06556212902069092,-0.0285305380821228,0.01016980409622192,2,0.5405018102056096,0.2551567124001377,0.5049168424471249,0.6227454710407778,-0.2280215620994568,-0.930855929851532,-0.2855056822299957,-25.1219482421875,-45.23102569580078,5.914276123046875,2
1596230637.981809,143,0,102970.1734074167,1.833374526078119,-0.676169329817599,1.195126164086676,-0.02986520901322365,0.08205399662256241,0.05215044692158699,-0.03531411290168762,0.03556454181671143,0.01352882385253906,2,0.54055966955048,0.2543820341533162,0.5053840983512409,0.6226330956320558,-0.2296071797609329,-0.9302619695663452,-0.2861700356006622,-25.15003967285156,-44.96429443359375,6.25921630859375,2
1596230638.011731,144,0,102970.2035044167,1.836721084396031,-0.6728471334178723,1.1932588991034,-0.01818588189780712,0.3226769864559174,0.04824190214276314,-0.01710036396980286,0.01883101463317871,0.01129829883575439,2,0.5389864803943343,0.2556342250545522,0.507870303960551,0.6214600908411327,-0.2297375202178955,-0.9295752644538879,-0.2882894277572632,-25.29294586181641,-45.12425994873047,5.986968994140625,2
1596230638.041942,145,0,102970.2336024167,1.840403625436736,-0.6734178046211166,1.193795513846678,0.0801783949136734,-0.1670455187559128,-0.01563768461346626,-0.01611986756324768,-0.001979947090148926,-0.04663354158401489,2,0.5387473207574751,0.256645990991136,0.5087023923168477,0.6205692651270105,-0.2295908778905869,-0.9297729134559631,-0.2877683341503143,-25.391357421875,-45.2818603515625,5.81805419921875,2
1596230638.071882,146,0,102970.2637004167,1.843353380723174,-0.6819566500829435,1.19455807355782,0.004179229028522968,-0.1319369524717331,0.04978633299469948,0.03266212344169617,0.01670670509338379,0.0137982964515686,2,0.5406616343223769,0.2550719319487751,0.5070891448237707,0.6208734929784989,-0.2315924912691116,-0.9300533533096313,-0.2852466106414795,-25.39940643310547,-45.10218811035156,6.094879150390625,2
1596230638.103822,147,0,102970.2937984167,1.841873150422558,-0.678799920713304,1.192033160191052,-0.1895052343606949,0.2545263171195984,0.02824174799025059,0.0003136396408081055,-0.008910179138183594,0.03843885660171509,2,0.5396421014192965,0.2547249684012358,0.5082254628104943,0.620973845716515,-0.2321646213531494,-0.9291226863861084,-0.2878031730651855,-25.68392944335938,-44.78816986083984,6.17156982421875,2
