loggingTime,loggingSample,identifierForVendor,motionTimestamp_sinceReboot,motionYaw,motionRoll,motionPitch,motionRotationRateX,motionRotationRateY,motionRotationRateZ,motionUserAccelerationX,motionUserAccelerationY,motionUserAccelerationZ,motionAttitudeReferenceFrame,motionQuaternionX,motionQuaternionY,motionQuaternionZ,motionQuaternionW,motionGravityX,motionGravityY,motionGravityZ,motionMagneticFieldX,motionMagneticFieldY,motionMagneticFieldZ,motionMagneticFieldCalibrationAccuracy
1596230418.180733,1,0,102750.362145375,1.017983041420946,0.3391686571307295,1.109691474325714,0.06665445119142532,-0.07054881006479263,-0.05362876132130623,-0.03391429781913757,-0.002393543720245361,-0.1063685417175293,2,-0.3835279021966498,-0.3783004736467444,-0.4858926467110639,-0.6882610284020408,0.1480321735143661,-0.8955614566802979,-0.4195902049541473,-7.706382751464844,-49.96413421630859,-1.814788818359375,2
1596230418.201666,2,0,102750.392242375,1.005330659801656,0.3445995433615003,1.113192768268395,0.1168731898069382,-0.2089030146598816,-0.1511755585670471,0.1075223982334137,0.05282968282699585,-0.002853095531463623,2,-0.3859646503194001,-0.3783094874839305,-0.4823600432265532,-0.6893779744699313,0.1492486000061035,-0.8971138000488281,-0.4158264398574829,-7.415939331054688,-50.00502014160156,-1.721588134765625,2
1596230418.23156,3,0,102750.422340625,1.007391531706646,0.3395153037288801,1.114536332698909,-0.0948583111166954,0.06884169578552246,0.3000306487083435,0.03539785742759705,-0.03546738624572754,0.00760728120803833,2,-0.3873226130716738,-0.377173322041493,-0.4820038664211636,-0.689488011125724,0.146730974316597,-0.8977065682411194,-0.415442943572998,-7.445365905761719,-49.97917175292969,-1.611480712890625,2
1596230418.261822,4,0,102750.452437625,1.020400975173389,0.3310341406277553,1.1179220945792,0.2085928916931152,0.2225935757160187,-0.05471421778202057,-0.1283429265022278,0.03517693281173706,-0.05239677429199219,2,-0.3882286419553619,-0.3773336734737162,-0.4846167984668425,-0.6870548196315933,0.1422135978937149,-0.8991931676864624,-0.4137956500053406,-7.41522216796875,-49.91159057617188,-1.73883056640625,2
1596230418.291817,5,0,102750.482535625,1.002973522231515,0.3533888040123606,1.119954959577354,0.08365068584680557,0.21426160633564,-0.229424774646759,-0.0563371479511261,-0.01117980480194092,0.02897804975509644,2,-0.3869171135206807,-0.3819638556017595,-0.4828351214197242,-0.6864902975127316,0.1507946252822876,-0.9000808000564575,-0.4087975323200226,-7.301277160644531,-49.95393371582031,-1.5594482421875,2
1596230418.322117,6,0,102750.512632625,0.9913195363013764,0.3698822908908402,1.122616917940803,0.2050676196813583,0.1615531742572784,-0.06205841526389122,0.08109971880912781,0.01117169857025146,-0.05075502395629883,2,-0.3862108381764378,-0.3857867265345732,-0.4818710186603361,-0.6854269299180107,0.1566496044397354,-0.9012374877929688,-0.4040195941925049,-7.249351501464844,-50.18744659423828,-1.280670166015625,2
1596230418.351981,7,0,102750.542729625,0.98777428132306,0.3718628688349533,1.130507660204516,0.3556729257106781,-0.1986009180545807,0.2164729237556458,0.0136839747428894,0.04862087965011597,-0.1338790655136108,2,-0.3894891036740407,-0.3869922159829875,-0.4805997133573729,-0.6837828964435955,0.1548606157302856,-0.9046286940574646,-0.3970705270767212,-7.248191833496094,-50.15400695800781,-0.9749755859375,2
1596230418.382198,8,0,102750.572827625,0.9872672477536341,0.3706057603681446,1.144630740581281,0.474766880273819,-0.04211129248142242,-0.01811935752630234,-0.1589911580085754,0.01065462827682495,-0.09899377822875977,2,-0.3953708670300402,-0.3886172044750666,-0.4793753418976715,-0.6803365562763458,0.1497188955545425,-0.9105575084686279,-0.3853170871734619,-7.518875122070312,-50.05203247070312,-0.28533935546875,2
1596230418.41215,9,0,102750.602924625,0.9631138826572829,0.3950547469811585,1.155785179833632,0.523773193359375,0.2199682295322418,-0.2438231557607651,-0.2612471580505371,0.03794533014297485,-0.05431723594665527,2,-0.3985890011908185,-0.3937701017350913,-0.4754155655507092,-0.6782712935544486,0.1551750749349594,-0.9151118397712708,-0.3721438348293304,-7.394920349121094,-50.10724639892578,0.213653564453125,2
1596230418.442365,10,0,102750.633022625,0.9238606549749843,0.4425160577372545,1.168079161922951,0.5605185627937317,0.4964761137962341,-0.4004955291748047,-0.3456032276153564,0.04755353927612305,0.02937608957290649,2,-0.3999806521457872,-0.403647315797128,-0.4710646584673874,-0.6746720229680331,0.1678256094455719,-0.9199994802474976,-0.3541686534881592,-6.924003601074219,-49.80978393554688,1.161102294921875,2
1596230418.472299,11,0,102750.663119625,0.8631691963045961,0.5181378880845376,1.175441574308451,0.7136149406433105,0.8492681980133057,-0.7744696140289307,-0.1517312228679657,0.1354139447212219,-0.08091455698013306,2,-0.397635129856864,-0.4178450171381111,-0.4655223336214013,-0.6712530905867067,0.1907434463500977,-0.9228599667549133,-0.3345836997032166,-6.390762329101562,-50.0396728515625,1.771881103515625,2
1596230418.502855,12,0,102750.693216625,0.7764789850965611,0.6233538922696146,1.183102476571119,0.7462315559387207,0.7247372269630432,-0.6706051230430603,0.08071281015872955,0.05852794647216797,-0.1428890228271484,2,-0.3949184257061846,-0.4365358930738876,-0.4573732357906733,-0.6665474042848532,0.2206934988498688,-0.9257833957672119,-0.3069517016410828,-5.0904541015625,-50.22926330566406,2.892913818359375,2
1596230418.532572,13,0,102750.723314625,0.7117873134506695,0.7037746189384603,1.190926057781709,0.787213146686554,0.7667813301086426,-0.3336077928543091,0.01331724226474762,0.1002089381217957,-0.07037979364395142,2,-0.3941050990280697,-0.4509227118126545,-0.4519923904355653,-0.6610996408032216,0.2399446666240692,-0.9287127256393433,-0.2826997637748718,-4.6578369140625,-50.02515411376953,3.640869140625,2
1596230418.562823,14,0,102750.753411625,0.6345031992200724,0.8073401222992911,1.204107808084346,0.9753810167312622,1.054899930953979,-0.4289092123508453,0.1774259507656097,0.1136878132820129,-0.1400240659713745,2,-0.3938364032049472,-0.4700494390443006,-0.4477952385733758,-0.6507117024781226,0.2590171992778778,-0.933519721031189,-0.247892826795578,-3.838516235351562,-50.10231781005859,5.2509765625,2
1596230418.592722,15,0,102750.783509625,0.5627772047864411,0.8947927108928654,1.213402898847507,0.6794731616973877,0.4669894278049469,-0.1790265738964081,0.1098893880844116,-0.04342108964920044,-0.1204781532287598,2,-0.3951324207722062,-0.4841780869835107,-0.4426397349035722,-0.6430489180534451,0.2728977799415588,-0.9368118643760681,-0.2188839018344879,-3.418838500976562,-50.02561950683594,6.111846923828125,2
1596230418.622944,16,0,102750.813606625,0.4999826662834401,0.9728607011748133,1.228639522433956,1.167499899864197,0.8813130259513855,-0.04372261092066765,0.1863225400447845,-0.02662348747253418,-0.03608733415603638,2,-0.3991989298243616,-0.4961874440480616,-0.4397906319656842,-0.6332632554357311,0.2773066461086273,-0.9420332312583923,-0.1888764649629593,-3.386520385742188,-49.90699005126953,7.588348388671875,2
1596230418.652934,17,0,102750.843704625,0.4124431157364348,1.068967327098937,1.234359162407664,0.5139523148536682,-0.2542657852172852,-0.417816162109375,0.3935086131095886,-0.1420034766197205,0.3272562026977539,2,-0.4024069169366077,-0.5085946139516837,-0.4322582620266076,-0.6265404123440146,0.2894227206707001,-0.943936824798584,-0.1588003784418106,-3.381088256835938,-49.72060394287109,8.63720703125,2
1596230418.683149,18,0,102750.873801625,0.3883194227784229,1.08551785385541,1.243384262411708,0.5634994506835938,0.0321807935833931,0.8486815094947815,0.2223266065120697,0.1273655891418457,0.05294835567474365,2,-0.4083319738935022,-0.5081935419588955,-0.4294650313827913,-0.6249511412408404,0.2844636738300323,-0.9468777775764465,-0.1500086486339569,-3.075401306152344,-49.47563934326172,9.835601806640625,2
1596230418.713104,19,0,102750.903898625,0.3572547154617201,1.134794992806827,1.28960172044344,0.8958097100257874,1.37795877456665,1.3031165599823,-0.3042398989200592,-0.1100178956985474,0.3157078623771667,2,-0.4224743194973539,-0.5127553879313451,-0.4376351197336883,-0.6058653291032863,0.2515422105789185,-0.9607245922088623,-0.1171947196125984,-4.086174011230469,-49.39577484130859,10.36285400390625,2
1596230418.743359,20,0,102750.933996625,0.335782571888693,1.202601723418499,1.316701587718456,0.2520813047885895,1.332089304924011,0.09868044406175613,-0.5225991606712341,0.02291750907897949,0.1126760244369507,2,-0.4226318062393662,-0.5254944618542613,-0.4502407643500561,-0.5852531487610073,0.2345224469900131,-0.9678912758827209,-0.09047585725784302,-6.738197326660156,-49.14596557617188,11.78634643554688,2
1596230418.773268,21,0,102750.964093625,0.2670679459481941,1.302072679755375,1.31121561359828,0.8450484871864319,0.9720103144645691,-0.5810683369636536,0.03558856248855591,0.09213835000991821,-0.3698874711990356,2,-0.416670215324384,-0.5406590855526097,-0.4501092116475751,-0.5757387935179327,0.2474626153707504,-0.9664976596832275,-0.06814736872911453,-7.009918212890625,-48.88304138183594,11.85382080078125,2
1596230418.803535,22,0,102750.994191625,0.1407727298099672,1.446071374656705,1.306725809815115,0.9682998657226562,0.1439985036849976,0.05395378172397614,0.2844541966915131,0.03431975841522217,-0.01454061269760132,2,-0.4176955446820805,-0.5561432225358921,-0.4430751912609887,-0.565614118706929,0.258983850479126,-0.9653355479240417,-0.03247029706835747,-6.492034912109375,-48.38433837890625,13.3690185546875,2
1596230418.833499,23,0,102751.024288625,0.07341739898229134,1.501142777364495,1.324562257486933,0.357190877199173,-0.2405070513486862,0.7733809351921082,0.01728808879852295,-0.02737092971801758,0.1219640970230103,2,-0.4296457827051549,-0.5540056113503206,-0.4402909291313365,-0.5609155072384292,0.2431623935699463,-0.9698372483253479,-0.01696456782519817,-7.216575622558594,-48.22097778320312,14.38873291015625,2
1596230418.863764,24,0,102751.054385625,0.01537500708566825,1.553740723299456,1.338935986371419,0.7788270115852356,-0.2948016822338104,0.01233897916972637,-0.1367848366498947,0.01044189929962158,-0.3619168996810913,2,-0.4382954578905292,-0.5531162644783556,-0.4393366647887661,-0.5558260712710015,0.2297543585300446,-0.9732406139373779,-0.003918979316949844,-7.4649658203125,-47.81816864013672,14.97357177734375,2
1596230418.893728,25,0,102751.084483625,-0.09988768648513538,1.648148405021414,1.328752395222627,0.8486287593841553,-0.8863601684570312,-0.3900067508220673,0.0471874326467514,0.05457359552383423,0.06510448455810547,2,-0.4471198549733998,-0.5561876744201616,-0.4252501971667603,-0.5566877162520412,0.238970085978508,-0.9708501100540161,0.01852178759872913,-7.048118591308594,-47.44320678710938,16.5218505859375,2
1596230418.924249,26,0,102751.114580625,-0.1727101064842222,1.685486506366897,1.326667028062621,0.4487495720386505,-0.9895275831222534,0.3200271427631378,0.0291886031627655,0.04951798915863037,0.08554911613464355,2,-0.4589310597163357,-0.5506476501320566,-0.412704310976333,-0.5620003509315025,0.2401226907968521,-0.9703481793403625,0.02766110375523567,-6.529281616210938,-47.22944641113281,17.24298095703125,2
1596230418.95384,27,0,102751.144678625,-0.238853021377598,1.740033722860614,1.332573913037131,0.5270703434944153,-0.2486495524644852,0.1556687206029892,-0.08762587606906891,-0.03352469205856323,0.06280207633972168,2,-0.4672907697005098,-0.5491011675471048,-0.4086578733416863,-0.5595765849408773,0.2326042056083679,-0.9717589616775513,0.0397455096244812,-6.412162780761719,-46.87303924560547,18.34246826171875,2
1596230418.984134,28,0,102751.174775625,-0.2758609529300824,1.755875874308743,1.332208309251212,-0.001506110653281212,-0.7573800683021545,-0.1568518429994583,-0.2714544534683228,-0.07407850027084351,0.1105655431747437,2,-0.4741224036847224,-0.5449341572494434,-0.4018836897072625,-0.5628001700932717,0.2322939485311508,-0.9716726541519165,0.04349057748913765,-6.345893859863281,-46.85536193847656,18.6038818359375,2
1596230419.014095,29,0,102751.204872625,-0.2863871274284411,1.754088890746632,1.317521768315726,0.4674857258796692,0.03186529129743576,-0.6716789603233337,-0.05866415798664093,0.2402901649475098,0.1108419895172119,2,-0.4741711327107753,-0.5458916149236183,-0.3936711518988651,-0.5676152457243162,0.2463778108358383,-0.9680970907211304,0.04567183554172516,-5.587974548339844,-46.77897644042969,19.05532836914062,2
1596230419.044348,30,0,102751.234970625,-0.346427183886482,1.811439112310453,1.301798961176748,0.5792094469070435,-0.09885678440332413,-0.06270874291658401,-0.1435354351997375,-0.2029265761375427,0.1735615730285645,2,-0.4762066594794068,-0.5521744680038385,-0.3850184088074344,-0.5657661071789131,0.258106529712677,-0.9640378355979919,0.06333885341882706,-4.99749755859375,-46.53347015380859,19.4429931640625,2
1596230419.074332,31,0,102751.265067625,-0.3550067000398565,1.822951079119057,1.298281248163697,-0.2540557980537415,0.4729288816452026,-0.3209987878799438,-0.1878851056098938,0.1200330853462219,0.4768718481063843,2,-0.4756651837695643,-0.5543631258409122,-0.3841315247394367,-0.5646832173832765,0.2606431245803833,-0.9630969762802124,0.06715168803930283,-4.732070922851562,-46.20789337158203,20.10089111328125,2
1596230419.104519,32,0,102751.295165625,-0.3365933635163649,1.836304805269934,1.28081788889788,0.3783592283725739,1.438142657279968,-0.7144443392753601,0.07042688131332397,0.1135334968566895,0.1613925695419312,2,-0.4644516207592873,-0.5672731321514812,-0.3864474676250731,-0.5595927401740114,0.2759115397930145,-0.9582500457763672,0.07502822577953339,-4.870567321777344,-46.21025848388672,20.06768798828125,2
1596230419.134506,33,0,102751.325262625,-0.3443699433154462,1.873100300779817,1.266414550472858,-0.4449627995491028,0.5253189206123352,-0.1792178303003311,0.1419197022914886,-0.290232241153717,0.1762357950210571,2,-0.4567162672927738,-0.5796759016198753,-0.3877584728805636,-0.5522946849053056,0.2861126363277435,-0.9540324211120605,0.08922780305147171,-4.511573791503906,-46.18553161621094,20.24411010742188,2
1596230419.164788,34,0,102751.355359625,-0.2801380701978315,1.826624652786496,1.267560354566799,-0.506487250328064,0.6003279089927673,-0.1529579609632492,-0.04827383160591125,0.1316851377487183,0.06208145618438721,2,-0.4474081372894756,-0.5810395673855862,-0.3954005764011326,-0.5530615032981756,0.2888903617858887,-0.9543752074241638,0.07556203752756119,-4.579940795898438,-46.33535003662109,19.82278442382812,2
1596230419.194746,35,0,102751.385457625,-0.2258238758883778,1.806614035408874,1.264210132358405,-0.3727146983146667,1.368277549743652,-0.3409231603145599,-0.01288938522338867,0.1693466305732727,0.09291017055511475,2,-0.4348059125990532,-0.5883879870261175,-0.4048117321116735,-0.5485168155184258,0.2934523522853851,-0.9533694386482239,0.07051321119070053,-4.864425659179688,-46.99443054199219,18.79241943359375,2
1596230419.224844,36,0,102751.415554625,-0.1678187262315938,1.791836706058828,1.257984951099959,-1.066307902336121,1.218367099761963,-0.3007005453109741,0.05412092804908752,-0.4013936519622803,0.3229550123214722,2,-0.4192113610607677,-0.5983280733602375,-0.4153985917751842,-0.5419496428990752,0.3002477586269379,-0.9514721632003784,0.06746929883956909,-5.091888427734375,-46.87043762207031,18.29501342773438,2
1596230419.254852,37,0,102751.445652625,0.01904697487304872,1.654169573587577,1.257930134536687,-2.507651805877686,1.716583132743835,-0.3927827477455139,-0.1074967682361603,0.2704640030860901,0.5441350936889648,2,-0.3926131837646696,-0.598891155426495,-0.438165971450062,-0.5433182970758292,0.306717574596405,-0.951455295085907,0.02563145570456982,-5.362396240234375,-47.88723754882812,15.821044921875,2
1596230419.285077,38,0,102751.475749625,0.2609003124161134,1.527078531715499,1.238635542505879,-2.229771852493286,5.049459457397461,-0.7763593792915344,0.3471552729606628,-0.1312572956085205,0.3565790057182312,2,-0.3425290032897236,-0.6128199373369971,-0.4744982108522959,-0.5310149173982819,0.3257742524147034,-0.9453399777412415,-0.01425121258944273,-5.488296508789062,-48.58319854736328,13.51971435546875,2
1596230419.315056,39,0,102751.505846625,0.5952533495926409,1.342573395822379,1.209584861917744,-6.880049705505371,4.861634254455566,-0.7670173048973083,-0.1381796300411224,-0.4491997957229614,0.102272629737854,2,-0.2755987226555127,-0.6197311278839908,-0.527004243182824,-0.5120987106980546,0.3442436158657074,-0.935469388961792,-0.07995734363794327,-5.910659790039062,-49.69484710693359,7.688751220703125,2
1596230419.345295,40,0,102751.535944625,1.024977475556216,1.248847067030322,1.083620281690784,-6.493996620178223,12.09546566009521,-3.071283340454102,-0.2621724605560303,0.2010879516601562,0.2356080412864685,2,-0.1190134463403106,-0.6416958124939753,-0.6035958024083286,-0.4579674423817765,0.4440795481204987,-0.8836583495140076,-0.148124560713768,-2.595733642578125,-49.84422302246094,-5.4989013671875,2
1596230419.375325,41,0,102751.566041625,1.395349006145875,1.272919736609387,0.9387283849215118,-9.205756187438965,12.15927600860596,-2.641913175582886,-1.092694282531738,-0.3120976090431213,0.9849510788917542,2,0.0617797142474012,-0.639909286311841,-0.6667985712503226,-0.376933852022319,0.5647962093353271,-0.8068074584007263,-0.1733987480401993,1.866500854492188,-48.59725952148438,-11.83477783203125,2
1596230419.405523,42,0,102751.596138625,1.756463439394641,1.438621428773956,0.7588731411121008,-8.645702362060547,16.09109497070312,-5.037804126739502,-0.4408296942710876,0.6909797191619873,1.450844645500183,2,0.2930924710649623,-0.6052127432283854,-0.6935932502877051,-0.2583463281227981,0.7192829251289368,-0.6881042122840881,-0.09562867879867554,17.68009185791016,-40.59977722167969,-20.76510620117188,2
1596230419.435483,43,0,102751.626236625,2.084285597242622,1.688276463133886,0.6024839852781579,-8.369949340820312,14.45387744903564,-5.286805629730225,-0.1187986135482788,1.159174919128418,1.899517893791199,2,0.5168834307526065,-0.530205623262197,-0.6596945445285434,-0.1285170461591599,0.8182512521743774,-0.5666908621788025,0.09657296538352966,27.74351501464844,-34.62187194824219,-19.34475708007812,2
1596230419.468398,44,0,102751.656333625,2.418412381422885,1.921020810319356,0.5016599702151074,-9.310478210449219,11.89094161987305,-5.506524085998535,1.090663433074951,1.041282176971436,1.195175766944885,2,0.6921844830676912,-0.4138803734312738,-0.5912239384669392,-0.006147443893948557,0.8235607147216797,-0.4808816313743591,0.3008326590061188,42.71903991699219,-21.34663391113281,-8.04132080078125,2
1596230419.495671,45,0,102751.686431625,2.725254045893342,2.074283401473295,0.4906012398907353,-5.11626672744751,6.211605548858643,-1.823906540870667,1.883705377578735,0.2979953587055206,-1.692922711372375,2,0.7916193744449045,-0.2934716678113119,-0.5260126182576353,0.1025850941064501,0.7725919485092163,-0.4711562991142273,0.4255737066268921,45.93714904785156,-15.77737426757812,-1.17279052734375,2
1596230419.525739,46,0,102751.716528625,2.770219508602246,2.119693379622118,0.555210012897758,-0.4194290041923523,-0.01933851651847363,3.520514011383057,1.14787220954895,0.6332114338874817,-0.4031351804733276,2,0.799722406492006,-0.2865858503031932,-0.5063335178381081,0.1481174800276243,0.7249557971954346,-0.5271217823028564,0.4433747529983521,46.46728515625,-14.83982086181641,5.29473876953125,2
1596230419.555713,47,0,102751.746625625,2.700027477402059,2.143642638214064,0.6340967843143986,0.6828569769859314,-1.448169112205505,1.9338219165802,0.884941577911377,0.8297245502471924,0.6432983875274658,2,0.7813874481325396,-0.3282738128086966,-0.5035889185625669,0.1675353315246944,0.6770011782646179,-0.5924501419067383,0.4366600811481476,45.1717529296875,-17.70874404907227,5.347747802734375,2
1596230419.586072,48,0,102751.776723625,2.658802595139163,2.084903762915818,0.6393703260815806,0.7562798261642456,-3.720245361328125,0.4629123210906982,-0.2197784185409546,0.0008314847946166992,0.6435359716415405,2,0.7582412465224996,-0.3498300368995423,-0.5295714842934445,0.1491413461617976,0.698737621307373,-0.5966902375221252,0.3946217000484467,44.25596618652344,-20.48393249511719,2.63323974609375,2
1596230419.61597,49,0,102751.806820625,2.621619879668414,2.022683987659334,0.6816269570779385,-0.4571845233440399,-0.7090256214141846,2.816895246505737,-1.163885116577148,-0.2544247508049011,1.365350842475891,2,0.7263490106077157,-0.3767793360307666,-0.556214098495543,0.1451900588905887,0.6986019015312195,-0.6300572752952576,0.3390910923480988,43.55633544921875,-21.25580596923828,-0.278594970703125,2
1596230419.646307,50,0,102751.836918625,2.626286734465491,2.084173581855873,0.7571484046838868,-1.721687316894531,4.386157035827637,0.583717942237854,-1.101083040237427,0.3487367630004883,1.065804243087769,2,0.7283304742815926,-0.3847177462912815,-0.5345494097387657,0.1891657902992945,0.6331063508987427,-0.6868516802787781,0.3569460511207581,41.42253112792969,-25.17008972167969,-0.759307861328125,2
1596230419.676288,51,0,102751.867015625,2.700448729304768,2.174796084744151,0.7396992837414921,-0.2407663315534592,4.148976802825928,-3.013431787490845,0.252878725528717,0.5740120410919189,-0.6093317270278931,2,0.768790243165171,-0.3445600409031283,-0.4928876713967453,0.2174891149960919,0.607978343963623,-0.6740658283233643,0.4195201098918915,41.35484313964844,-25.26300048828125,1.899810791015625,2
1596230419.709137,52,0,102751.897112625,2.771104638486137,2.192497496338489,0.6581894052151952,0.06201491504907608,0.1911369115114212,-2.593590021133423,1.483994841575623,0.4094482660293579,-0.5085933208465576,2,0.8001635133905408,-0.3001905979823012,-0.4779654705447438,0.2029110336168763,0.6430770754814148,-0.6116855144500732,0.4607520997524261,43.29673767089844,-20.91801452636719,7.24560546875,2
1596230419.736658,53,0,102751.927210625,2.776286021029307,2.165196854612389,0.6501807971534422,0.2626883983612061,-1.752436280250549,2.119617223739624,0.9477434158325195,-0.6809321641921997,-0.5671377182006836,2,0.7957873376824292,-0.2993328452758747,-0.4883115188562128,0.1966574221952266,0.6594521999359131,-0.6053303480148315,0.445755273103714,44.21711730957031,-19.00580215454102,7.61328125,2
1596230419.768416,54,0,102751.957307625,2.700033440403773,2.166794068874379,0.7264574440207286,-0.1885578185319901,-0.701288640499115,3.485892295837402,-0.2724788784980774,-0.0182681679725647,-0.03247833251953125,2,0.7694198885394862,-0.3432212749264026,-0.4958928537396631,0.2104336551703257,0.6186490058898926,-0.6642256379127502,0.419615626335144,43.28910827636719,-21.94849395751953,5.220184326171875,2
1596230419.796873,55,0,102751.987404625,2.659595165630188,2.204120751705077,0.7985875629544991,-0.759443461894989,0.926577091217041,1.123667240142822,-1.025147199630737,0.4610251784324646,0.1050821542739868,2,0.7562880262044428,-0.3667330872602054,-0.4869729227542455,0.2374711367313587,0.5624065399169922,-0.7163712978363037,0.4129294753074646,40.60763549804688,-26.55208587646484,4.752166748046875,2
1596230419.829215,56,0,102752.017502625,2.689269237868897,2.214776550913318,0.7904047365737387,0.1469845622777939,1.466463327407837,-2.168551445007324,-0.5578582882881165,0.3704969882965088,0.2676433324813843,2,0.7659685475117091,-0.3528374764827478,-0.4792640497169483,0.2431127568077396,0.5626437664031982,-0.7106381058692932,0.4224041998386383,40.55699157714844,-26.68415832519531,5.256439208984375,2
1596230419.856826,57,0,102752.047599625,2.749222608160028,2.232757459323091,0.7257669865588244,-0.2352387309074402,1.79780650138855,-2.316793441772461,0.4846581816673279,0.1836771965026855,0.5658043622970581,2,0.7935172940715133,-0.3165627971257434,-0.4646544987599971,0.2328397148139847,0.5900059938430786,-0.6637093424797058,0.4597634077072144,42.215576171875,-22.77944946289062,8.23150634765625,2
1596230419.889285,58,0,102752.077697625,2.793781511856139,2.229681260340531,0.7173227954184777,-0.6675150990486145,0.145801454782486,0.7066820859909058,0.8432130217552185,-0.2232919931411743,-0.07557106018066406,2,0.8012840907905484,-0.2976985925930225,-0.4606153202216749,0.2390665887914642,0.5958278775215149,-0.6573695540428162,0.461361289024353,42.60220336914062,-21.64923095703125,9.0357666015625,2
1596230419.916975,59,0,102752.107794625,2.747680458729417,2.24662548511982,0.7585150650600864,0.4909411668777466,-0.9750366806983948,2.281303644180298,0.1321394443511963,-0.07500088214874268,-0.4573270082473755,2,0.7899357305038405,-0.3209826096628363,-0.4594949440407186,0.2486686979335886,0.5663062930107117,-0.6878443360328674,0.454056590795517,41.78092956542969,-23.41973876953125,8.465362548828125,2
1596230419.949179,60,0,102752.137891625,2.687978899732694,2.262643814460847,0.7941943264855053,0.1757147014141083,-0.4923393130302429,1.036240458488464,-0.5340017676353455,-0.1073504686355591,-0.08339929580688477,2,0.7761826629134566,-0.3479956661416299,-0.4610108958450121,0.2528010503031786,0.5397099852561951,-0.7132991552352905,0.4471210241317749,40.92707824707031,-25.02613830566406,7.845703125,2
1596230419.977197,61,0,102752.167989625,2.682494075176439,2.261080286665441,0.7942589733363128,-0.02823338098824024,0.1306386888027191,-0.7553930878639221,-0.6998958587646484,-0.163517951965332,-0.09372878074645996,2,0.7748503020177585,-0.3503292761718307,-0.4623092551240405,0.251289536092186,0.5403727889060974,-0.7133444547653198,0.4462471902370453,40.64784240722656,-26.03159332275391,7.45904541015625,2
1596230420.009098,62,0,102752.198086625,2.71435245433032,2.246764522791507,0.7713166988918533,-0.1394705027341843,0.3323373794555664,-1.141411185264587,-0.1762623190879822,-0.1332817077636719,-0.1255214214324951,2,0.7818603029807949,-0.3361383340290742,-0.4636452395101408,0.2464519741223974,0.5593277215957642,-0.6970798969268799,0.448589026927948,40.72846984863281,-25.20865631103516,7.46295166015625,2
1596230420.037504,63,0,102752.228183625,2.743475429561693,2.235572539450898,0.7524767205773157,-0.1740811169147491,0.3495294451713562,-0.6617200374603271,0.3789117336273193,0.004711270332336426,-0.1061768531799316,2,0.7879291365013691,-0.3230007104495481,-0.4643502745744996,0.2433454364606549,0.5745487213134766,-0.683448851108551,0.4503235518932343,41.88232421875,-23.82117462158203,8.1036376953125,2
1596230420.068379,64,0,102752.258281625,2.755833006975946,2.239233328895694,0.7502779818711598,-0.06985944509506226,0.4271792769432068,0.2327965646982193,0.3802776336669922,0.21629399061203,0.07185745239257812,2,0.7911973917921653,-0.3173067961704781,-0.4613872746534756,0.2458548891419312,0.5740739703178406,-0.6818421483039856,0.4533538222312927,42.00019836425781,-23.49704742431641,8.17987060546875,2
1596230420.097596,65,0,102752.288378625,2.739105064707913,2.262871385973031,0.7613409581955548,0.1270608454942703,0.1152069345116615,0.6213198900222778,0.02706003189086914,0.08457720279693604,0.2155903577804565,2,0.7916909140994998,-0.3228040992152711,-0.4541552958468296,0.2505311168700712,0.5573562979698181,-0.6898928284645081,0.4619539678096771,41.42958068847656,-23.89291381835938,8.894500732421875,2
1596230420.129408,66,0,102752.318476625,2.729481339567288,2.258504938449465,0.7650760927923693,-0.00742702279239893,-0.6689413785934448,-0.2062035351991653,0.02409809827804565,0.1486535668373108,0.2903708219528198,2,0.7883653828339975,-0.3277475841871059,-0.45710912060042,0.2492239494144185,0.5573729276657104,-0.6925919055938721,0.4578769207000732,41.276611328125,-24.31861877441406,8.978973388671875,2
1596230420.157868,67,0,102752.348573625,2.739612023243815,2.22657219054084,0.7579887304352761,0.07378747314214706,-0.9792608618736267,-0.2123446762561798,0.1588523983955383,0.04564547538757324,-0.09638619422912598,2,0.7840847527476092,-0.3265366981906331,-0.4683767032099371,0.2433269148414398,0.5755837559700012,-0.6874622106552124,0.4428302347660065,41.81246948242188,-24.12689971923828,7.85906982421875,2
1596230420.189341,68,0,102752.378670625,2.72275202326559,2.206759928578303,0.757063523015752,0.4784294366836548,-0.9297876358032227,0.5759035348892212,0.05484485626220703,-0.1080663800239563,-0.1395045518875122,2,0.7767956391772223,-0.3353320024772964,-0.4781233861633466,0.2356667894147771,0.5847550630569458,-0.6867899894714355,0.4317180216312408,42.0115966796875,-23.85960388183594,7.148895263671875,2
1596230420.218276,69,0,102752.408768625,2.70667229216801,2.199732823060581,0.7686754984613947,-0.3174255192279816,-0.3212510049343109,0.3556782603263855,-0.05903971195220947,-0.08074426651000977,-0.07893872261047363,2,0.7699750852152053,-0.3443506273781859,-0.4827979640123051,0.2355142379652397,0.581285834312439,-0.6951837539672852,0.4228779673576355,41.83421325683594,-24.53485107421875,6.018707275390625,2
1596230420.249247,70,0,102752.4388649167,2.705801882528929,2.1863845860243,0.7749380546952821,0.3179477155208588,-0.6996854543685913,0.05815507471561432,-0.1421640515327454,0.003211736679077148,-0.3544445037841797,2,0.7652748630065751,-0.347324085042399,-0.4880555093862884,0.2356309934600648,0.5833125710487366,-0.6996718049049377,0.4125592708587646,41.40011596679688,-25.05130004882812,5.732330322265625,2
1596230420.278203,71,0,102752.4689619167,2.689549793863749,2.175141450891956,0.7653392928023924,0.3697046339511871,-0.6173619627952576,-0.1332899183034897,0.06488239765167236,0.01726961135864258,0.05707156658172607,2,0.7616798453794726,-0.3531716019488099,-0.494166223348848,0.2256399241525179,0.5934136509895325,-0.6927817463874817,0.4097727239131927,41.36631774902344,-25.02496337890625,4.77252197265625,2
1596230420.309275,72,0,102752.4990599167,2.686988884877848,2.158088622569429,0.7636754641368539,0.07320182025432587,-0.7321422100067139,0.2112274914979935,0.1338655352592468,-0.08602875471115112,-0.04339635372161865,2,0.7573320812986735,-0.3557587516200545,-0.5009165952810579,0.2212833561513302,0.6012734174728394,-0.6915808916091919,0.400232344865799,41.50834655761719,-24.92464447021484,3.714752197265625,2
1596230420.3385,73,0,102752.5291569167,2.663381161212636,2.156360113425323,0.7677283845279115,0.5526131391525269,-0.3479163646697998,0.5338184833526611,-0.004888474941253662,0.05224764347076416,0.1408568620681763,2,0.7517860858123118,-0.3655649137423036,-0.504188706774378,0.2167340091024192,0.5996233820915222,-0.6945026516914368,0.39764004945755,41.55892944335938,-25.30438232421875,3.47857666015625,2
1596230420.388081,74,0,102752.5592549167,2.640618510953267,2.165293956703342,0.7716065113631413,0.2636399567127228,-0.2980347275733948,0.1941803395748138,-0.0960279107093811,0.06929194927215576,0.1985596418380737,2,0.7490006569103391,-0.3738084017589469,-0.503340974993215,0.2142731769953504,0.5938112139701843,-0.6972876787185669,0.4014694094657898,41.12432861328125,-26.02886962890625,3.291748046875,2
1596230420.398579,75,0,102752.5893519167,2.626717634848017,2.154961663081262,0.7648042988415519,0.6745498180389404,-1.063502788543701,-0.1419094204902649,-0.03187006711959839,0.127092719078064,-0.05240416526794434,2,0.7452322712160645,-0.3789308230426007,-0.5085438638996965,0.2059692876940594,0.6018703579902649,-0.692395806312561,0.3979194164276123,41.06596374511719,-26.01292419433594,3.085479736328125,2
1596230420.429603,76,0,102752.6194489167,2.59330699312745,2.137288759421966,0.7412837669313204,1.43442976474762,-1.590721368789673,-0.3174859583377838,0.1104723215103149,0.1263610124588013,0.2519668340682983,2,0.7393199061043395,-0.389014978810063,-0.5178301149971551,0.1841882198601352,0.622380256652832,-0.675235390663147,0.3958531618118286,41.54000854492188,-25.79010009765625,2.0260009765625,2
1596230420.459069,77,0,102752.6495469167,2.556866998132759,2.106391315578679,0.7108683868669874,1.109487056732178,-2.02966046333313,-0.3183194100856781,0.1817889213562012,0.01994907855987549,0.461884617805481,2,0.730493622307215,-0.3996881120003334,-0.5313455282352748,0.1558857515689881,0.651677668094635,-0.6524921059608459,0.386743038892746,41.47975158691406,-25.31333923339844,1.340301513671875,2
1596230420.489285,78,0,102752.6796439167,2.517870326215515,2.068333089176469,0.6930957380779644,1.335641264915466,-2.213723659515381,0.1479445993900299,0.01386451721191406,0.007628083229064941,0.188262939453125,2,0.7160730406403729,-0.4132936095901306,-0.5472221954582116,0.1302903618082659,0.6760057806968689,-0.6389216780662537,0.3671444058418274,41.82933044433594,-24.92906188964844,-0.917083740234375,2
1596230420.518924,79,0,102752.7097409167,2.460941676136734,2.019825110951514,0.6671185331371696,2.015859127044678,-3.527662038803101,-0.3983507752418518,0.07149118185043335,0.2084388732910156,-0.1879868507385254,2,0.6960899510261581,-0.4312439242886499,-0.5663316090006206,0.09357319755132973,0.7077297568321228,-0.6187248826026917,0.3410250842571259,41.706787109375,-25.15034484863281,-2.204254150390625,2
1596230420.549478,80,0,102752.7398389167,2.393770072292234,1.954011625504654,0.6321944949455548,2.023165225982666,-3.216218948364258,-0.02068969234824181,0.9676001071929932,0.4445949196815491,0.3556571006774902,2,0.6698037621890373,-0.4496481021931477,-0.5891515887271699,0.04560646423383091,0.7482181787490845,-0.5909165740013123,0.3016409873962402,41.22988891601562,-24.84182739257812,-5.9173583984375,2
1596230420.57923,81,0,102752.7699359167,2.320966726615688,1.893022308081409,0.6317782156404335,1.976026058197021,-4.163946151733398,1.31710410118103,0.7057837247848511,0.1182199120521545,0.001097440719604492,2,0.6347844807127663,-0.4741572851180893,-0.6100269258000388,0.009517601075794691,0.7654455900192261,-0.5905807018280029,0.2555529475212097,40.59455871582031,-25.50684356689453,-7.53961181640625,2
1596230420.629958,82,0,102752.8000329167,2.20799083049514,1.802112759722837,0.6603593947245693,3.16223669052124,-6.072178363800049,1.897811412811279,-0.1065121293067932,-0.1050173044204712,0.3093756437301636,2,0.5717139464339466,-0.5134922967121648,-0.6388095699635931,-0.0372973716483164,0.7687364816665649,-0.6134007573127747,0.1810623556375504,37.30839538574219,-28.30592346191406,-12.27841186523438,2
1596230420.639375,83,0,102752.8301309167,2.088270618890796,1.69848453242596,0.6898938665268383,2.203240156173706,-5.632407188415527,1.132678866386414,-0.6163092851638794,-0.2337634563446045,0.8051048517227173,2,0.4985355704737536,-0.5482448389179772,-0.6650124583391064,-0.09299634577149396,0.7650342583656311,-0.6364552974700928,0.09822023659944534,34.47035217285156,-30.44956970214844,-14.6337890625,2
1596230420.686232,84,0,102752.8602279167,2.01958978420093,1.579061546652526,0.7132816891904307,1.763580799102783,-4.951329231262207,0.6490417718887329,-0.8309802412986755,-0.4115793108940125,0.4261448383331299,2,0.4325624492426575,-0.5621519802080943,-0.6906108582615322,-0.1411791045337218,0.7561928629875183,-0.6543189883232117,0.006250242702662945,29.12142944335938,-33.53942108154297,-19.4058837890625,2
1596230420.699567,85,0,102752.8903259167,1.917520852287402,1.504119481503212,0.729287632504238,3.127663850784302,-4.940442085266113,0.2726083993911743,-0.6251928806304932,0.07510673999786377,0.1234017610549927,2,0.372750337579159,-0.5798420809923409,-0.6983910483687075,-0.1925879004954572,0.7439921498298645,-0.6663386225700378,-0.04968069493770599,26.71620178222656,-34.61579895019531,-21.01571655273438,2
1596230420.744122,86,0,102752.9204229167,1.791133700017208,1.42751892897016,0.7435054469549562,3.178987741470337,-5.686601161956787,0.06475450098514557,-0.08192956447601318,0.1171408891677856,0.1190202832221985,2,0.3044780925830471,-0.5956005969076219,-0.6983793282293893,-0.254596089975661,0.7285575866699219,-0.6768724322319031,-0.1051060408353806,21.68921661376953,-37.72139739990234,-21.89794921875,2
1596230420.759799,87,0,102752.9505199167,1.650837766101734,1.344869642181605,0.7713408037810447,3.84030556678772,-6.049436569213867,0.6558092832565308,0.2462517619132996,0.1181710362434387,0.09546136856079102,2,0.224499137177428,-0.6076967455232978,-0.6915659193797676,-0.3194389272672154,0.6987559199333191,-0.6970971822738647,-0.1606096029281616,16.09192657470703,-40.91136932373047,-21.4241943359375,2
1596230420.807213,88,0,102752.9806179167,1.499489899545155,1.275276387006252,0.8312324204901614,3.734667539596558,-5.902705192565918,1.306026577949524,-0.04797464609146118,0.2855107188224792,0.4925685524940491,2,0.1337033597756323,-0.6196623574282538,-0.6768417292185458,-0.3742020470820053,0.6447498798370361,-0.7387625575065613,-0.1962839514017105,12.81480407714844,-42.99519348144531,-20.22540283203125,2
1596230420.820051,89,0,102753.0107149167,1.369965221111268,1.191837427178593,0.9036147717376291,3.065697431564331,-6.141068935394287,1.419909954071045,-0.1865264177322388,0.157173752784729,0.4840054512023926,2,0.03963107951816558,-0.6196535667666653,-0.6608416273236547,-0.4216006490266106,0.5748724341392517,-0.7855687737464905,-0.2289176732301712,6.079147338867188,-46.16480255126953,-16.84127807617188,2
1596230420.867238,90,0,102753.0408119167,1.269503048344006,1.098371642718679,0.9788518673815629,2.624350547790527,-5.26669979095459,1.411500930786133,-0.3482033014297485,-0.03885519504547119,0.2862801551818848,2,-0.04969114133413158,-0.6087514390941932,-0.6440028269911976,-0.4606655315275773,0.4968591332435608,-0.8298572897911072,-0.2539049386978149,2.656280517578125,-47.32469177246094,-14.9136962890625,2
1596230420.880175,91,0,102753.0709099167,1.179746500715086,1.036419435187124,1.043417253988656,2.154854297637939,-3.847606182098389,0.7486042976379395,-0.1913890242576599,-0.1029320955276489,0.271742582321167,2,-0.1208962869619254,-0.5976831873491704,-0.6240762228998687,-0.4885565244532053,0.4331070482730865,-0.8641290664672852,-0.2563177943229675,-2.09619140625,-48.79091644287109,-10.6734619140625,2
1596230420.927231,92,0,102753.1010069167,1.091448246565857,1.003883620865433,1.088550430848236,1.894719123840332,-4.087792873382568,0.522834300994873,-0.01041108369827271,0.07535046339035034,-0.06569397449493408,2,-0.1743561016771574,-0.5874272036238755,-0.6022079629580116,-0.5117368924095755,0.3912190794944763,-0.8859555721282959,-0.2490584552288055,-3.532691955566406,-49.09138488769531,-8.6143798828125,2
1596230420.940411,93,0,102753.1311039167,1.00857345789988,0.9390733591068836,1.136447863530759,1.985350251197815,-4.749680995941162,0.7144516706466675,-0.02694204449653625,0.1047927141189575,0.08699339628219604,2,-0.2358878944827016,-0.5657759613749113,-0.5763629339172518,-0.5404258421937895,0.3396058082580566,-0.9071444272994995,-0.2485089302062988,-5.872032165527344,-49.85012054443359,-4.598724365234375,2
1596230420.985616,94,0,102753.1612019167,0.9427586250670466,0.8731666518348444,1.189450147264154,1.264846801757812,-3.281914234161377,1.042890667915344,-0.2510190904140472,-0.3147880434989929,0.1413730382919312,2,-0.2933047964429484,-0.5426148238476086,-0.5519390002833945,-0.5611635163943021,0.2852185666561127,-0.9281644821166992,-0.2390829026699066,-6.968803405761719,-49.94082641601562,-2.168304443359375,2
1596230421.000564,95,0,102753.1912989167,0.9537015778895691,0.7903206318160741,1.233252802321152,0.9211736917495728,-2.023939371109009,1.094129323959351,-0.5128057599067688,-0.0796433687210083,-0.07954281568527222,2,-0.3300326067781238,-0.5239942089650518,-0.5433780216905505,-0.5667881630390822,0.235322505235672,-0.9435710310935974,-0.2330171018838882,-9.1893310546875,-49.85082244873047,0.52166748046875,2
1596230421.047751,96,0,102753.2213969167,0.9174949438396146,0.7595357092106918,1.276117622963026,1.46405017375946,-2.211653709411621,0.3571129441261292,-0.3227683901786804,0.1215606927871704,-0.2831646800041199,2,-0.3641420346238963,-0.5119534027128615,-0.528333797238537,-0.5711108529860968,0.1999872028827667,-0.9568955302238464,-0.2106085866689682,-10.19308471679688,-49.64045715332031,1.765899658203125,2
1596230421.0608,97,0,102753.2514939167,0.842376119672289,0.7667415757112449,1.308811856340145,0.9912390112876892,-2.060394525527954,0.3095844388008118,-0.1868386417627335,-0.1457933783531189,0.02834469079971313,2,-0.393832903757231,-0.5016311652423492,-0.5086151638485084,-0.5784223053481961,0.1796905398368835,-0.965877890586853,-0.1865236312150955,-10.64044952392578,-49.54855346679688,5.2044677734375,2
1596230421.107768,98,0,102753.2815909167,0.8226861477404361,0.7347173988994343,1.330218718396379,0.2671329379081726,-1.096605062484741,0.2848241925239563,-0.440528392791748,-0.3236714005470276,0.07906210422515869,2,-0.4149298631810076,-0.4893209774591011,-0.4967828975951645,-0.5844697752060721,0.1597265303134918,-0.9712005257606506,-0.1767963767051697,-10.66286468505859,-49.33435821533203,6.428466796875,2
1596230421.121231,99,0,102753.3116889167,0.8137502896585752,0.7390216739119082,1.331819027353093,0.06290408223867416,0.7125250101089478,-0.3536219894886017,-0.5867974162101746,-0.02592259645462036,-0.01903873682022095,2,-0.4166570978954635,-0.4887922421612779,-0.4950896654109618,-0.5851197455387949,0.159438744187355,-0.9715805649757385,-0.1749580204486847,-10.77383422851562,-49.10587310791016,7.315765380859375,2
1596230421.166809,100,0,102753.3417859167,0.7492745611132541,0.834148062915928,1.323427310048693,0.2108893543481827,1.158892393112183,-0.6595793962478638,-0.2253904193639755,0.08418154716491699,-0.1080744862556458,2,-0.4058812865362391,-0.5030037873149185,-0.4956020370396508,-0.5801949924195837,0.1813693791627884,-0.9695599675178528,-0.1644951403141022,-10.62422180175781,-49.16802978515625,7.19696044921875,2
1596230421.181251,101,0,102753.3718829167,0.6783429548494293,0.9309232696531262,1.313176629282292,0.3844349086284637,0.6254655122756958,-0.5779876112937927,0.3165202736854553,0.1497926712036133,-0.2134763598442078,2,-0.3961214960832407,-0.5167439439100693,-0.4938628898017101,-0.5763356179738284,0.2043764740228653,-0.9669991731643677,-0.1521269083023071,-9.938186645507812,-49.18264770507812,7.3677978515625,2
1596230421.225428,102,0,102753.4019809167,0.5692419705958592,1.038709993022707,1.314890736414554,1.142989754676819,-0.5445361733436584,-0.2987004220485687,0.6759188175201416,-0.01814675331115723,-0.2041845321655273,2,-0.3988593839676242,-0.5260255786756237,-0.4840536618468851,-0.5743694033132563,0.2181273102760315,-0.9674344658851624,-0.1284165680408478,-8.814102172851562,-49.08071136474609,8.6412353515625,2
1596230421.2415,103,0,102753.4320782917,0.5042385439824204,1.073059836785451,1.32922091504367,0.3098013997077942,-1.089041590690613,0.703234851360321,0.2664688229560852,-0.2432234287261963,0.2986810803413391,2,-0.4129612409511827,-0.52187532318957,-0.4740613493867483,-0.5765195411087994,0.2102047204971313,-0.9709622859954834,-0.1142183244228363,-8.807357788085938,-49.09832763671875,9.44012451171875,2
1596230421.287022,104,0,102753.4621752917,0.530294504150549,1.014851928499589,1.357294889922377,0.1167133450508118,-0.8618082404136658,0.7624471783638,-0.2795634567737579,-0.1324955224990845,0.2121896147727966,2,-0.430348224606147,-0.5088126903741543,-0.472661912669583,-0.576628674710623,0.1799735426902771,-0.9772950410842896,-0.1118201017379761,-9.673324584960938,-48.76119232177734,10.25140380859375,2
1596230421.301516,105,0,102753.4922732917,0.5530430979778695,0.9933304607319207,1.359685922076385,-0.0471811443567276,0.9584798812866211,-0.3598519265651703,-0.1746791154146194,0.2934912443161011,0.04234111309051514,2,-0.4305493005190847,-0.5073771905816237,-0.4748400157311155,-0.5759536132648029,0.1755673736333847,-0.9777988195419312,-0.1143913716077805,-10.17845916748047,-48.78096008300781,10.30447387695312,2
1596230421.349119,106,0,102753.5223702917,0.4947252526516048,1.075986697989589,1.35941369876915,0.6942896246910095,0.2848349809646606,0.06178402900695801,-0.3010541200637817,-0.05764061212539673,-0.1507509350776672,2,-0.4257632187723771,-0.5185650984263696,-0.4758132954435353,-0.568698045491964,0.1846463084220886,-0.9777417778968811,-0.09963183850049973,-10.00875854492188,-48.63986206054688,10.60952758789062,2
1596230421.361749,107,0,102753.5524672917,0.4198266340153869,1.141311673636347,1.359695543253045,-0.02633809484541416,-0.5123154520988464,-0.7531756162643433,0.1719954907894135,-0.2831361293792725,0.1568901538848877,2,-0.4299107106331597,-0.5211057873678816,-0.4685157903014238,-0.5693138845879744,0.1905056089162827,-0.9778008460998535,-0.08725108206272125,-9.817298889160156,-48.67517852783203,10.987060546875,2
1596230421.406178,108,0,102753.5825652917,0.4251577386087054,1.120570997650275,1.336049132725182,-0.3738887906074524,-0.6153081655502319,-0.1933361440896988,0.2863702476024628,0.1372396945953369,0.1741909980773926,2,-0.4248945253772723,-0.5185126176397645,-0.4620822389318872,-0.5805937736636638,0.2094179689884186,-0.9725731611251831,-0.101218618452549,-8.389335632324219,-48.69657897949219,11.07467651367188,2
1596230421.421794,109,0,102753.6126622917,0.4473501452194076,1.080475314283935,1.347566001041886,0.3361905217170715,-0.6687284708023071,0.7007521986961365,0.007729798555374146,0.03109455108642578,-0.07925206422805786,2,-0.4326025330081747,-0.5106174131106197,-0.4615813272345105,-0.5822948793593952,0.1952973008155823,-0.9751874208450317,-0.1042498126626015,-8.575912475585938,-48.91700744628906,10.91348266601562,2
1596230421.467571,110,0,102753.6427602917,0.4437155086361433,1.056210172922202,1.360205229164984,0.07384736835956573,-0.9153851866722107,-0.1166966035962105,-0.3084243535995483,-0.01606035232543945,0.02286362648010254,2,-0.4436746624942739,-0.5017082115241656,-0.4568971582280186,-0.585394496710697,0.1819670647382736,-0.9779075384140015,-0.1028833314776421,-8.887641906738281,-48.79252624511719,11.61282348632812,2
1596230421.482029,111,0,102753.6728572917,0.4038553223073467,1.078306694547627,1.350167024538391,0.1822736114263535,-0.5610548257827759,-0.5477249026298523,-0.38384810090065,0.08080798387527466,0.1619044542312622,2,-0.4450279619810377,-0.500213283234584,-0.4486995067705309,-0.5919504635474233,0.1928353160619736,-0.9757599234580994,-0.1034735664725304,-8.491912841796875,-48.92994689941406,11.52438354492188,2
1596230421.52891,112,0,102753.7029542917,0.3487046923005805,1.104443023039856,1.33771338422952,0.09487739205360413,-0.7861833572387695,-0.6899415254592896,-0.2401603162288666,-0.0190771222114563,0.01246517896652222,2,-0.4485248026729158,-0.496888330738007,-0.4362191924730124,-0.6013652660963889,0.206312507390976,-0.9729589223861694,-0.1038549765944481,-7.040855407714844,-48.63895416259766,12.09390258789062,2
1596230421.542519,113,0,102753.7330522917,0.312257950182332,1.132226563077833,1.314038743131315,-0.1666061282157898,-0.03277525305747986,-0.8278441429138184,0.1389029622077942,0.105643093585968,0.02667886018753052,2,-0.4431680043880923,-0.4996836321855718,-0.4275153533978366,-0.6092199846951888,0.2299122512340546,-0.9672184586524963,-0.1078367754817009,-6.293411254882812,-48.67122650146484,12.16555786132812,2
1596230421.574957,114,0,102753.7631492917,0.2877147643762896,1.150949731936706,1.297515428652654,0.006100253202021122,-0.4472114145755768,-0.3449639976024628,0.2519752979278564,-0.06942850351333618,0.1070708036422729,2,-0.4394746508736605,-0.5018520223442399,-0.4212639549380809,-0.6144452877805515,0.2464515566825867,-0.9628905653953552,-0.1100131571292877,-5.09320068359375,-49.09888458251953,12.14456176757812,2
1596230421.602441,115,0,102753.7932462917,0.3043551224744491,1.109096985717684,1.286990412229319,-0.5234027504920959,-0.9162043929100037,-0.2504269480705261,0.06688976287841797,-0.07785487174987793,0.09404075145721436,2,-0.4403265549414169,-0.4937045815671598,-0.4153811824077683,-0.6243610594905291,0.2506931126117706,-0.9599967002868652,-0.1247366219758987,-4.643203735351562,-48.93733978271484,11.9019775390625,2
1596230421.645082,116,0,102753.8233442917,0.3332577801632865,1.076458064689541,1.271932224680442,-0.4591749012470245,0.4785512685775757,-0.3568623661994934,-0.07198262214660645,0.08357810974121094,0.3301343321800232,2,-0.4345169077598879,-0.4912717818893899,-0.4148222028166202,-0.6306896903607859,0.2591855823993683,-0.9556715488433838,-0.1396941840648651,-3.980827331542969,-49.10379791259766,11.36572265625,2
1596230421.662465,117,0,102753.8534412917,0.3623789921487379,1.061184558783909,1.253512514602506,-0.6066505312919617,0.1704585701227188,-0.4257843792438507,0.01340416073799133,-0.04889899492263794,-0.07488447427749634,2,-0.423740111600107,-0.4943124148440796,-0.4178297898892503,-0.633654234926103,0.2723438143730164,-0.9500863552093506,-0.1521991044282913,-3.816375732421875,-49.17720794677734,10.95632934570312,2
1596230421.706814,118,0,102753.8835382917,0.3840826231079514,1.044769807613938,1.238958660947997,-0.2225512266159058,0.252569317817688,-0.1344180852174759,0.03023388981819153,0.05320817232131958,-0.2208396792411804,2,-0.4163910119178824,-0.4948041427202736,-0.4190417186379642,-0.6373313685420408,0.2817379832267761,-0.9454452395439148,-0.1635747700929642,-3.098823547363281,-49.37797546386719,9.90667724609375,2
1596230421.722767,119,0,102753.9136362917,0.4027047141121876,1.041600548982638,1.234278119764266,-0.37565678358078,0.7514957785606384,-0.04256679490208626,0.04573643207550049,-0.04435598850250244,0.114037811756134,2,-0.4106830253918509,-0.4979858437266659,-0.4236102506322197,-0.6355342604021439,0.2850350439548492,-0.9439100623130798,-0.1666991114616394,-2.915878295898438,-49.17794036865234,9.35760498046875,2
1596230421.767621,120,0,102753.9437332917,0.4342985901761748,1.034295358401549,1.222801268626136,-0.5931440591812134,0.3707643747329712,-0.09540712088346481,0.1806413531303406,0.03831815719604492,-0.05028247833251953,2,-0.4000137667329896,-0.5028295797656742,-0.4304778187346866,-0.6339086242711651,0.2931019067764282,-0.9400582909584045,-0.17430280148983,-2.940933227539062,-49.43009185791016,8.79595947265625,2
1596230421.783065,121,0,102753.9738312917,0.4690810906341537,0.9977134294872153,1.221141035898219,-0.1142919510602951,-0.3745344877243042,0.2559614181518555,-0.1065074801445007,0.0466848611831665,-0.09493660926818848,2,-0.3985836205635612,-0.4982520283963481,-0.4339883973641566,-0.6360267109563756,0.2878418564796448,-0.9394908547401428,-0.1857520341873169,-2.964698791503906,-49.59173583984375,8.03033447265625,2
1596230421.826219,122,0,102754.0039282917,0.4864679825455586,0.9733381589436098,1.217659822530633,-0.446218878030777,-0.1739707291126251,-0.2376388162374496,-0.3727440237998962,0.009703636169433594,0.1297721266746521,2,-0.3982277093876307,-0.494104442926225,-0.4342283450366997,-0.6393129766055035,0.285931259393692,-0.9382926225662231,-0.1945509761571884,-3.131309509277344,-49.34656524658203,8.096343994140625,2
1596230421.84332,123,0,102754.0340252917,0.4943408497097652,0.969788728067885,1.201100583855462,-0.1986884474754333,0.5972007513046265,-0.5632962584495544,-0.1560029089450836,0.05923444032669067,0.09939438104629517,2,-0.3906741947939635,-0.4951887862961132,-0.4339780249002266,-0.6432920709094687,0.2980140149593353,-0.9324373006820679,-0.20432348549366,-2.627197265625,-49.77239990234375,7.2095947265625,2
1596230421.886005,124,0,102754.0641232917,0.4905899308154446,0.9932984464002331,1.180380716510612,-0.6975342035293579,0.3693789839744568,-0.4621416628360748,0.2643081247806549,-0.04070448875427246,0.01149874925613403,2,-0.3785004907515662,-0.5028463799959982,-0.434619750739301,-0.6441960380679632,0.3188557028770447,-0.9247509837150574,-0.2077657878398895,-2.271759033203125,-49.84787750244141,6.860565185546875,2
1596230421.903393,125,0,102754.0942202917,0.5248852534623818,0.9621146803594893,1.171829026417228,-0.07727275788784027,-0.220306396484375,0.312015026807785,0.1857618689537048,0.0004113316535949707,-0.2837963700294495,2,-0.3733945729412842,-0.4995162012871996,-0.4387373282621084,-0.646969563599434,0.3186992704868317,-0.9214626550674438,-0.2221201211214066,-1.985466003417969,-49.9893798828125,5.813812255859375,2
1596230421.945895,126,0,102754.1243172917,0.5343381549879225,0.9425608391864033,1.172854366296066,-0.22878697514534,-0.3132924735546112,-0.1513603627681732,0.02175045013427734,0.08756095170974731,0.04060870409011841,2,-0.3757320363855806,-0.4949229092862774,-0.4382621344680375,-0.6494635706773974,0.3135305643081665,-0.9218604564666748,-0.2277535051107407,-2.016029357910156,-49.77043151855469,5.65521240234375,2
1596230421.96367,127,0,102754.1544152917,0.5368059998482442,0.9343603634174749,1.166435467115263,-0.0271691158413887,-0.2025510370731354,-0.05678727477788925,-0.03220361471176147,-0.01800692081451416,-0.1213847994804382,2,-0.3744027898963825,-0.4928569848911151,-0.4367788007732985,-0.6527930483729245,0.3164048194885254,-0.9193540215492249,-0.2338290810585022,-1.819099426269531,-49.93560028076172,5.27606201171875,2
1596230422.014942,128,0,102754.1845122917,0.5390041178415115,0.9271995653629781,1.164779348689748,-0.122606448829174,-0.1205726265907288,-0.05086905881762505,0.04172343015670776,0.02317112684249878,0.04188072681427002,2,-0.3747745650431108,-0.4909612946440035,-0.4359651903556527,-0.6545496822661787,0.3159397840499878,-0.9187012314796448,-0.2370020598173141,-1.683235168457031,-49.98181915283203,5.50921630859375,2
1596230422.023854,129,0,102754.2146092917,0.5425929268783575,0.9193925964804252,1.161565032558373,-0.07476963102817535,-0.2322744429111481,-0.04049580171704292,0.06225681304931641,-0.009065032005310059,-0.005952596664428711,2,-0.3743320173939884,-0.4891322589792724,-0.4353143326504915,-0.656602129225303,0.3164263665676117,-0.9174269437789917,-0.2412503510713577,-1.584991455078125,-50.10870361328125,5.168365478515625,2
1596230422.066607,130,0,102754.2447072917,0.5507001721098101,0.9023067582591294,1.160093763236984,-0.1239175647497177,-0.3418882489204407,0.08765209466218948,0.03023672103881836,0.006774187088012695,-0.01473653316497803,2,-0.3754935403554039,-0.4850523780383293,-0.4346161155979003,-0.6594219794444118,0.3133172988891602,-0.9168405532836914,-0.2474575787782669,-1.615409851074219,-50.27304077148438,5.04217529296875,2
1596230422.084092,131,0,102754.2748042917,0.5615378560525651,0.883513992824518,1.16047502225945,-0.1093574836850166,-0.2347987145185471,0.0885021984577179,-0.09223771095275879,-0.004820764064788818,-0.007130026817321777,2,-0.3771113051780612,-0.4808815183970597,-0.4346993763463196,-0.6614955602706168,0.3083418905735016,-0.916992723941803,-0.2530800700187683,-1.742103576660156,-50.23007202148438,5.037139892578125,2
1596230422.126936,132,0,102754.3049022917,0.5715556443022554,0.8711828272833454,1.158704788583647,-0.169563353061676,-0.03411243483424187,-0.01108296774327755,-0.1469955444335938,0.006714999675750732,0.03415554761886597,2,-0.3766895546030077,-0.4786973108712824,-0.4355129508118443,-0.6627836475540901,0.3064391314983368,-0.9162850975990295,-0.2579077184200287,-1.672782897949219,-50.15482330322266,4.819244384765625,2
1596230422.144478,133,0,102754.3349992917,0.5737919296306374,0.8685762227803464,1.154201398379849,-0.05875799804925919,-0.01623570173978806,-0.1535738110542297,-0.002957582473754883,0.02553749084472656,-0.05297374725341797,2,-0.374935109425662,-0.4782671768999615,-0.4353180399798871,-0.6642155204527578,0.3089129328727722,-0.9144721031188965,-0.2613683342933655,-1.600448608398438,-50.14647674560547,4.589447021484375,2
1596230422.186184,134,0,102754.3650962917,0.5722581530889818,0.8703373710716986,1.151248459990302,-0.03996560350060463,0.1274098306894302,-0.01104428805410862,0.06572839617729187,0.0036163330078125,-0.03687030076980591,2,-0.3737460795298938,-0.4785731761886965,-0.4348442432805224,-0.6649750391104392,0.3114357590675354,-0.9132732152938843,-0.262563169002533,-1.323135375976562,-50.21965789794922,4.26025390625,2
1596230422.204405,135,0,102754.3951942917,0.5803851424028924,0.8644393972712605,1.152866416829196,-0.1063814908266068,-0.06196744740009308,0.08923032879829407,-0.0882796049118042,-0.05801880359649658,-0.01328027248382568,2,-0.3737301129946193,-0.4781294623257833,-0.4366022274120824,-0.6641508008004876,0.3087573349475861,-0.9139310717582703,-0.2634360492229462,-1.334663391113281,-50.20443725585938,4.346954345703125,2
1596230422.247909,136,0,102754.4252912917,0.5856520312427417,0.8578300215520325,1.153496604902511,0.01367610413581133,0.04048818722367287,-0.00122496485710144,-0.04112911224365234,0.04870045185089111,0.07374352216720581,2,-0.3741668867840557,-0.4769192446708896,-0.4371764108128035,-0.6643973678613566,0.306573897600174,-0.9141866564750671,-0.2650943398475647,-1.794639587402344,-50.52680206298828,4.34759521484375,2
1596230422.264647,137,0,102754.4553882917,0.5860096692729682,0.8593740834271928,1.150254251587142,-0.1175619587302208,0.008497591130435467,-0.07694975286722183,0.08426445722579956,-0.0206754207611084,0.01281523704528809,2,-0.3724542730347718,-0.4774939702249448,-0.4372733987052767,-0.664882889997028,0.3092264533042908,-0.9128677845001221,-0.2665546536445618,-1.546981811523438,-50.44219970703125,4.12408447265625,2
1596230422.311888,138,0,102754.4854862917,0.590200141812338,0.8535284287605603,1.148595058921914,-0.03540246933698654,-0.1504798829555511,0.02037555910646915,0.002783894538879395,0.03860330581665039,-0.02983462810516357,2,-0.3720727881814835,-0.4763249520549157,-0.4374217102322796,-0.6658366376957616,0.3088037669658661,-0.9121891260147095,-0.2693527638912201,-1.434646606445312,-50.34966278076172,3.92913818359375,2
1596230422.324865,139,0,102754.5155832917,0.5861920923489208,0.8528497686488925,1.148687038704616,0.1365110129117966,0.01022437773644924,-0.1102719902992249,-0.02283036708831787,0.01886612176895142,-0.001510500907897949,2,-0.3732112036915662,-0.4753523577060799,-0.4359685979182851,-0.666846839989331,0.3085577189922333,-0.9122267961502075,-0.2695070803165436,-1.376014709472656,-50.24180603027344,3.994293212890625,2
1596230422.366676,140,0,102754.5456802917,0.579609953475234,0.8640232563034586,1.147728144013,-0.1137949153780937,0.1367442309856415,-0.03609845787286758,0.04408031702041626,-0.01713120937347412,0.01685482263565063,2,-0.371962887409069,-0.477847578915667,-0.4357645959912386,-0.66589364599152,0.3122148215770721,-0.9118335843086243,-0.2666105926036835,-1.071220397949219,-50.16184234619141,4.2606201171875,2
1596230422.385012,141,0,102754.5757782917,0.578424414229248,0.860799777465205,1.146831102242061,0.1515915840864182,-0.403222382068634,-0.01916613057255745,0.008878320455551147,0.0009582042694091797,-0.08528482913970947,2,-0.3725901808816884,-0.4765524125126741,-0.4346816907945786,-0.667177656861816,0.3119739890098572,-0.9114649295806885,-0.2681487202644348,-1.046142578125,-50.53095245361328,3.901458740234375,2
1596230422.428003,142,0,102754.6058752917,0.5669261218633191,0.8585732602070891,1.149128474844107,0.06728911399841309,-0.246541902422905,-0.07712898403406143,-0.000504910945892334,0.04131174087524414,0.05073446035385132,2,-0.3767178610318958,-0.4736527284796876,-0.430647582837129,-0.6695365862764577,0.3097904026508331,-0.9124075770378113,-0.2674734890460968,-1.081336975097656,-50.05890655517578,4.425201416015625,2
