loggingTime,loggingSample,identifierForVendor,motionTimestamp_sinceReboot,motionYaw,motionRoll,motionPitch,motionRotationRateX,motionRotationRateY,motionRotationRateZ,motionUserAccelerationX,motionUserAccelerationY,motionUserAccelerationZ,motionAttitudeReferenceFrame,motionQuaternionX,motionQuaternionY,motionQuaternionZ,motionQuaternionW,motionGravityX,motionGravityY,motionGravityZ,motionMagneticFieldX,motionMagneticFieldY,motionMagneticFieldZ,motionMagneticFieldCalibrationAccuracy
1596230601.683471,1,0,102933.8750559167,1.959877798916339,-0.8842147477611574,1.170872305385348,0.02405526302754879,0.0917031466960907,-0.034245565533638,-0.01436468958854675,-0.01553577184677124,-0.02913033962249756,2,0.574362351409315,0.2161119623236992,0.4939184691040363,0.6159937171132784,-0.3011291325092316,-0.9210906028747559,-0.2468070238828659,-27.16730499267578,-43.84342956542969,9.18927001953125,2
1596230601.713702,2,0,102933.9051539167,1.959719905343724,-0.8867174003390599,1.172866546326552,0.0291717667132616,-0.09843640774488449,-0.06696125864982605,-0.02455213665962219,0.05196088552474976,-0.00291973352432251,2,0.5752186545717499,0.2160505960954394,0.4925385257092669,0.6163210383964561,-0.300321638584137,-0.9218652248382568,-0.2448912858963013,-26.91704559326172,-44.07152557373047,9.152252197265625,2
1596230601.74376,3,0,102933.9352519167,1.963329868771445,-0.8910763962845242,1.173398052796665,0.1211832314729691,-0.04640495032072067,0.08423525094985962,-0.04093411564826965,-0.0106663703918457,-0.03570449352264404,2,0.5759605877907451,0.215948031475919,0.4922327157756863,0.6159081701139323,-0.3010049760341644,-0.9220710396766663,-0.2432716935873032,-26.94409942626953,-44.02680206298828,9.22735595703125,2
1596230601.77375,4,0,102933.9653509167,1.971488282365797,-0.9023728906780006,1.175038019655664,0.1318291276693344,-0.2384518682956696,-0.06768102198839188,-0.02930048108100891,0.0294654369354248,-0.01411616802215576,2,0.5780342811826258,0.2154463292973291,0.4909798374237183,0.6151407554065988,-0.3025467097759247,-0.9227045178413391,-0.2389184981584549,-26.98297119140625,-43.89060211181641,9.5655517578125,2
1596230601.803949,5,0,102933.9954489167,1.974535961352468,-0.9104065710619141,1.179803663261312,0.1090740486979485,-0.0100322924554348,-0.1186435744166374,-0.05247956514358521,0.04646921157836914,0.02053117752075195,2,0.580171791396474,0.2156630767445141,0.4881203955923044,0.615328186381605,-0.3009802401065826,-0.9245312213897705,-0.2337802648544312,-26.88285827636719,-43.81562042236328,9.823822021484375,2
1596230601.833914,6,0,102934.0255479167,1.975200092643096,-0.9094565865934642,1.184904755414427,0.1348287463188171,0.06333585828542709,-0.2017999589443207,-0.05231568217277527,0.03710556030273438,-0.004365384578704834,2,0.5803946445506215,0.2180796645087729,0.4870220704653881,0.6151366262740869,-0.2970324158668518,-0.92646324634552,-0.2311666309833527,-26.74656677246094,-44.03323364257812,9.892822265625,2
1596230601.864228,7,0,102934.0556459167,1.965443438863744,-0.8974494208917209,1.196713415432837,0.159117728471756,0.1009790077805519,-0.4410900473594666,0.01858684420585632,0.0552024245262146,-0.002725601196289062,2,0.5797835203399804,0.2234107154693031,0.4838384719642638,0.6163108397185336,-0.2856622636318207,-0.9308431148529053,-0.2278774380683899,-26.32009124755859,-44.14413452148438,9.994293212890625,2
1596230601.894038,8,0,102934.0857439167,1.962971370008174,-0.8962631500245446,1.201730673223965,0.03225154057145119,-0.1185498982667923,0.07057708501815796,0.04642650485038757,-0.07686221599578857,0.001128256320953369,2,0.5803000135866345,0.2249521998475551,0.4818610535109076,0.6168131896475489,-0.2817409932613373,-0.9326648116111755,-0.2252968102693558,-26.21474456787109,-44.46613311767578,10.24020385742188,2
1596230601.924385,9,0,102934.1158429167,1.968590392752855,-0.9035760383270359,1.203041565539188,0.1081138104200363,-0.04670500382781029,-0.1361108422279358,-0.03171196579933167,0.05266004800796509,0.006887555122375488,2,0.5815644274401663,0.2248245097806826,0.4810608221142386,0.6162931801632976,-0.2824200987815857,-0.9331368803977966,-0.2224735170602798,-25.95380401611328,-44.53038787841797,10.18167114257812,2
1596230601.954357,10,0,102934.1459409167,1.964587273565473,-0.9006739677159659,1.207906882653854,0.05975911766290665,-0.01379996351897717,-0.1008845567703247,-0.001843661069869995,-0.004339933395385742,0.04877179861068726,2,0.5818186121709724,0.2263891481021668,0.4791535879127117,0.6169660795955531,-0.2782121002674103,-0.9348750710487366,-0.2204701155424118,-25.85861968994141,-44.28167724609375,10.46194458007812,2
1596230601.984714,11,0,102934.1760399167,1.964363760340862,-0.9007546655268991,1.209816940913874,0.03521553054451942,-0.04015917330980301,-0.06349676847457886,-0.05787140130996704,0.0156635046005249,-0.0002120733261108398,2,0.5820595458433038,0.2270188660445295,0.4784647892604385,0.6170419330785546,-0.2768296897411346,-0.9355513453483582,-0.2193382382392883,-25.78390502929688,-44.43968200683594,10.5390625,2
1596230602.014585,12,0,102934.2061379167,1.961216909846113,-0.8981784900516149,1.213706513703515,0.09464314579963684,0.04125847667455673,-0.1465021371841431,-0.008354216814041138,0.009404420852661133,0.009302914142608643,2,0.5822024791359269,0.2283626045118316,0.4770277880744095,0.6175235012751612,-0.2734149694442749,-0.9369180202484131,-0.217781588435173,-25.43281555175781,-43.99992370605469,10.79202270507812,2
1596230602.044784,13,0,102934.2362359167,1.974248243180285,-0.9089574321635558,1.219923042634256,0.1747141182422638,-0.05867695063352585,-0.03483079746365547,-0.01907587051391602,0.0292280912399292,0.03764355182647705,2,0.5838983489799527,0.2311782308190472,0.4759558495960107,0.615699330378096,-0.2711471021175385,-0.9390729069709778,-0.21123868227005,-25.54625701904297,-44.24246215820312,10.87353515625,2
1596230602.074586,14,0,102934.2663349167,1.971091503215714,-0.9082822068606352,1.223551770109731,0.05861318111419678,-0.1293442845344543,-0.1452430784702301,0.01482769846916199,-0.02945041656494141,-0.09411889314651489,2,0.584459364805584,0.2318300371369047,0.4740408753969655,0.6163988439050724,-0.2683157324790955,-0.940313994884491,-0.2093241661787033,-25.28388214111328,-44.20748901367188,11.03958129882812,2
1596230602.104919,15,0,102934.2964329167,1.977096554685731,-0.9202578051121381,1.225587738780231,0.1146651431918144,-0.2717070281505585,0.07837336510419846,0.05277654528617859,-0.02766638994216919,-0.03075700998306274,2,0.5867931510765552,0.230663615821001,0.4717442922814988,0.616381086446449,-0.269279271364212,-0.9410048723220825,-0.2049361914396286,-25.16313934326172,-44.27278900146484,11.19363403320312,2
1596230602.134896,16,0,102934.3265319167,1.988197237464436,-0.9383543272065303,1.224813017370756,0.05221586674451828,-0.02526909112930298,0.1196039393544197,0.08398821949958801,-0.09710049629211426,-0.1010742783546448,2,0.5897094704764161,0.2280621689574495,0.4700856469304897,0.6158328614446553,-0.2735315561294556,-0.9407424330711365,-0.2004607766866684,-25.18032073974609,-44.37631988525391,11.38827514648438,2
1596230602.165183,17,0,102934.3566299167,2.003975333020849,-0.9551886149409492,1.220433837449193,0.0318017452955246,-0.3642389476299286,0.3111094832420349,0.103990226984024,-0.1345494985580444,-0.1923655271530151,2,0.5914975910363502,0.2258941556389264,0.4713483842847404,0.6139489617363104,-0.2802278995513916,-0.9392483830451965,-0.1982048600912094,-25.66047668457031,-44.05140686035156,11.85333251953125,2
1596230602.195181,18,0,102934.3867279167,2.023399964514401,-0.9918676877145449,1.212273481627571,0.05722013115882874,-0.785036027431488,0.4040667712688446,0.1135100722312927,-0.0344843864440918,-0.1468542814254761,2,0.5973077276720837,0.217329785045574,0.4689855728837689,0.6132241929837245,-0.2937136590480804,-0.9364161491394043,-0.1919824928045273,-25.72293853759766,-44.03363800048828,11.96392822265625,2
1596230602.225346,19,0,102934.4168269167,2.029742529452562,-1.032638836996185,1.194505707725632,-0.6393464207649231,-1.705795764923096,0.70310378074646,-0.01912730932235718,0.1544811129570007,0.01364803314208984,2,0.6048386546857361,0.1999878071297036,0.4642910606204242,0.6153120512617178,-0.3155325353145599,-0.9300341010093689,-0.1883501559495926,-25.91455078125,-43.76482391357422,12.63189697265625,2
1596230602.255303,20,0,102934.4469249167,2.009869367587924,-1.080113139121518,1.167107253389884,-0.5461615920066833,-2.430135011672974,0.5206001996994019,0.01505199074745178,0.3287218809127808,0.04243254661560059,2,0.615576329190459,0.168858737084394,0.4522813901790603,0.6228917291554077,-0.3464660048484802,-0.9196181297302246,-0.18510502576828,-26.17855072021484,-43.49591827392578,12.970703125,2
1596230602.285557,21,0,102934.4770239167,1.995052241895921,-1.134788666639565,1.150855278933001,-0.2503301799297333,-2.034364461898804,0.3019527792930603,-0.06013694405555725,0.1645197868347168,0.115119993686676,2,0.6277154797961548,0.1410004803229255,0.4357614160889618,0.629447468288753,-0.3695635795593262,-0.913112998008728,-0.1721842885017395,-25.65653991699219,-43.30100250244141,14.29104614257812,2
1596230602.315802,22,0,102934.5071219167,1.99800692057244,-1.184420193244707,1.143060243763579,0.01890425011515617,-1.156097531318665,0.2390578985214233,-0.1178075671195984,0.0587005615234375,0.05421924591064453,2,0.6376715838566719,0.1233580693165096,0.4234505395879818,0.6315438218858302,-0.3842326998710632,-0.9099071621894836,-0.1563154757022858,-25.38221740722656,-43.14452362060547,14.89459228515625,2
1596230602.366889,23,0,102934.5372199167,2.017748442823956,-1.227097028028092,1.143314377479488,0.5895627737045288,-0.4482320547103882,-0.2082632184028625,-0.1815383434295654,0.3470003604888916,-0.02875280380249023,2,0.6454587229583817,0.1163264945802289,0.4159062447848929,0.629978888428943,-0.3903341591358185,-0.9100125432014465,-0.1397023648023605,-24.86219024658203,-42.9891357421875,16.029541015625,2
1596230602.375663,24,0,102934.5673189167,2.064811126343241,-1.275244594194064,1.166922398867688,0.9231305718421936,0.05726799741387367,-0.7005365490913391,-0.09590479731559753,0.1507922410964966,0.02407777309417725,2,0.6535030172159118,0.1253078944885644,0.4075577161202296,0.6254027049246946,-0.3759446144104004,-0.9195455312728882,-0.1144634783267975,-24.64170837402344,-42.90688323974609,16.65859985351562,2
1596230602.429687,25,0,102934.5974180417,2.111873908729417,-1.312161804613092,1.190830946946023,0.8577595949172974,0.1555529832839966,-0.608920156955719,0.0351472795009613,-0.2307740449905396,-0.1684483885765076,2,0.6584039706113043,0.1381117505329421,0.4025159992162591,0.6208142221903113,-0.3585527837276459,-0.928677499294281,-0.09485871344804764,-23.52096557617188,-42.95310974121094,18.0224609375,2
1596230602.435955,26,0,102934.6275170417,2.172143766421271,-1.375315904524725,1.217778862171819,0.7513136863708496,-0.524554431438446,-0.6378312706947327,0.3126556277275085,-0.4197466373443604,0.1228040456771851,2,0.6666227170335116,0.1484491186188263,0.3916803563493836,0.6165740586946795,-0.3391462862491608,-0.9383337497711182,-0.06715402752161026,-23.16143035888672,-42.98904418945312,18.78219604492188,2
1596230602.489857,27,0,102934.6576150417,2.223144527268301,-1.433522932370687,1.227480739941714,0.5759242177009583,-0.208813339471817,0.1121379211544991,0.0629182755947113,0.2081658244132996,0.03916877508163452,2,0.6738796804747433,0.1511780096152945,0.3847814723911029,0.6123517371732291,-0.3334445953369141,-0.9416437745094299,-0.04606277123093605,-22.00910949707031,-42.71537780761719,20.22976684570312,2
1596230602.496013,28,0,102934.6877130417,2.27767210313778,-1.492893366095312,1.234717125068235,0.6917704343795776,-0.1612637490034103,-0.7518004775047302,-0.4403214454650879,0.1650930047035217,-0.004639625549316406,2,0.6807445534521015,0.1541236162612601,0.379050579290709,0.6075800792179011,-0.3287883698940277,-0.9440549612045288,-0.02566552720963955,-21.92396545410156,-42.53278350830078,20.67599487304688,2
1596230602.546531,29,0,102934.7178120417,2.328225761254881,-1.535999271047382,1.26806787002534,0.3938652873039246,0.5596089363098145,-0.9769287705421448,-0.2408727407455444,-0.1770753264427185,0.1802970170974731,2,0.6825866659835855,0.1699692036247321,0.3694458535238525,0.6072033240083883,-0.2979458868503571,-0.9545266032218933,-0.01037182658910751,-20.68348693847656,-42.61906433105469,21.82174682617188,2
1596230602.556325,30,0,102934.7479100417,2.367536590534423,-1.554392479940507,1.285724451832352,0.5745109915733337,0.6254719495773315,-0.3668937683105469,0.1370690166950226,0.04475367069244385,0.05519664287567139,2,0.6810829781740381,0.1839007367131954,0.3696970819227609,0.6046739802196506,-0.2811887860298157,-0.9596414566040039,-0.004612991586327553,-19.89057159423828,-42.56050872802734,22.08206176757812,2
1596230602.606418,31,0,102934.7780090417,2.422178227539253,-1.589658104431925,1.299822290140805,0.4609827399253845,0.5363136529922485,-0.5502249598503113,0.1708335280418396,0.1135561466217041,-0.0260080099105835,2,0.6810582860283967,0.1966820579526624,0.3699045858688063,0.600538499725112,-0.2676228582859039,-0.9635106325149536,0.005048441700637341,-19.71080017089844,-42.50328826904297,22.465576171875,2
1596230602.616864,32,0,102934.8081070417,2.494041079588041,-1.64810006385428,1.312635443075028,0.5978120565414429,0.2256350666284561,-0.4011439085006714,0.008021444082260132,-0.07141745090484619,-0.1300179958343506,2,0.683087290975775,0.2079660714506224,0.3676984635701558,0.5957683193797187,-0.2545410990715027,-0.9668611288070679,0.01971626840531826,-19.70762634277344,-42.53778076171875,22.91915893554688,2
1596230602.667185,33,0,102934.8382050417,2.571124738261555,-1.706114115082003,1.320792999666499,0.6490764617919922,0.8537216782569885,-0.1643328815698624,0.155205637216568,-0.04893803596496582,0.03557825088500977,2,0.6843982087356659,0.2197439104742958,0.368394197997732,0.5895740410566337,-0.2451460510492325,-0.9689115881919861,0.03337658941745758,-19.48974609375,-42.5211181640625,23.3138427734375,2
1596230602.676652,34,0,102934.8683040417,2.630557236775269,-1.742363492019744,1.319364180471411,0.4110610485076904,0.4911401569843292,-0.1005343794822693,-0.2034894824028015,0.02277016639709473,0.03454875946044922,2,0.6846793687316557,0.2290237512676831,0.3737876105495069,0.5822759268377673,-0.2451393008232117,-0.9685571193695068,0.04247543215751648,-20.043701171875,-41.95767211914062,23.5054931640625,2
1596230602.727348,35,0,102934.8984020417,2.686253983881528,-1.782654365887182,1.326411321465718,0.4213899374008179,0.4568115174770355,-0.3613166213035583,0.1109093427658081,0.09993171691894531,0.04338014125823975,2,0.6845066307714982,0.2385162716175578,0.3743054731355996,0.5783219511397535,-0.2365507632493973,-0.9702863097190857,0.05087867751717567,-19.99723052978516,-41.69687652587891,23.78268432617188,2
1596230602.736825,36,0,102934.9285010417,2.742891564226011,-1.820593657847975,1.326445655089501,0.3896743953227997,0.6094928979873657,0.202243983745575,0.33611860871315,-0.2135822772979736,0.05821061134338379,2,0.6847578851148484,0.2470014368607424,0.3776008963538694,0.5722889128016859,-0.2344180196523666,-0.9702945947647095,0.05980614200234413,-20.49639129638672,-41.55628204345703,24.118408203125,2
1596230602.790399,37,0,102934.9585990417,2.761111243974724,-1.83265221084573,1.31431745413853,0.02459915727376938,-0.2618804275989532,0.3847241997718811,0.1363336145877838,0.113831102848053,0.1450549364089966,2,0.6871207592000039,0.2463738943086016,0.3816181889230754,0.5670383769481733,-0.2450286597013474,-0.9672892093658447,0.06567006558179855,-20.63141632080078,-41.39630126953125,24.30184936523438,2
1596230602.797153,38,0,102934.9886970417,2.738224917131748,-1.825469316596449,1.304273115990567,-0.1324130445718765,-0.5645837783813477,0.3504145741462708,-0.07244089245796204,-0.01209211349487305,0.1303551197052002,2,0.6904257155447204,0.2376737776984742,0.3800439479234414,0.5677942312820247,-0.2548846304416656,-0.9646924138069153,0.06635298579931259,-20.84515380859375,-41.18477630615234,24.27584838867188,2
1596230602.845287,39,0,102935.0187960417,2.705900987047928,-1.805385860507744,1.297009982689222,-0.400838702917099,-0.3610189855098724,0.2732813060283661,-0.07525864243507385,-0.08101266622543335,0.3154419660568237,2,0.6917161840759899,0.2301144404384805,0.3795899251282806,0.5696381153056105,-0.2629730701446533,-0.9627540707588196,0.06284786760807037,-20.96836090087891,-41.02995300292969,24.759521484375,2
1596230602.857283,40,0,102935.0488940417,2.634644879303692,-1.757956240268439,1.294045256636056,-0.8519318699836731,-1.218139886856079,0.2323161214590073,0.3412688672542572,0.1586640477180481,0.4762653112411499,2,0.6912408676199131,0.2181882424653744,0.3763244206600537,0.5770268614777907,-0.2684606909751892,-0.9619482159614563,0.05084009096026421,-20.88233947753906,-41.30478668212891,24.26290893554688,2
1596230602.906514,41,0,102935.0789920417,2.485649974826749,-1.662658717533055,1.282666047141937,-1.732813715934753,-1.734676361083984,1.146341800689697,0.5809295177459717,-0.310660719871521,0.462482213973999,2,0.6903353235460574,0.1909728759907628,0.3688253605124525,0.5923973056185742,-0.2829627096652985,-0.9587768316268921,0.02606699615716934,-20.12905120849609,-41.64901733398438,23.84927368164062,2
1596230602.917787,42,0,102935.1090910417,2.298622629786484,-1.552341886122072,1.230344596611369,-2.166345119476318,-2.894392251968384,2.278361082077026,0.3473933339118958,-0.3758673667907715,0.3605384826660156,2,0.6905335460322943,0.1417127631408727,0.3663754618080045,0.6073302085746342,-0.3338561952114105,-0.9426039457321167,-0.006161828991025686,-20.66269683837891,-42.21867370605469,22.5224609375,2
1596230602.967617,43,0,102935.1391890417,2.080672598607167,-1.467032021442768,1.147850785670229,-3.916717290878296,-5.457387924194336,3.017866611480713,0.5795028209686279,-0.4865515232086182,-0.1254705190658569,2,0.688998582432764,0.06343653468814409,0.3541816268258658,0.629136124357802,-0.4082408547401428,-0.9118838906288147,-0.04251351952552795,-21.24649047851562,-42.46990966796875,22.13287353515625,2
1596230602.977613,44,0,102935.1692880417,1.786889424238519,-1.478044150712222,1.002843299729036,-6.245027542114258,-11.94017314910889,5.600702285766602,1.04555869102478,-0.5832439064979553,0.1969081163406372,2,0.6829191937403187,-0.09333318275472738,0.3021409468055305,0.6584991192380572,-0.5355953574180603,-0.8430038094520569,-0.04982058331370354,-21.60932922363281,-43.26004791259766,20.22268676757812,2
1596230603.02585,45,0,102935.1993860417,1.448948785753654,-1.595685468740305,0.7933607012609905,-7.95903205871582,-13.10202026367188,7.634376525878906,0.936564028263092,0.5112326741218567,1.336291551589966,2,0.6396061254251983,-0.3156460050237422,0.2197144407386482,0.6655804310010986,-0.7012370228767395,-0.712714672088623,0.0174567922949791,-22.93657684326172,-43.28640747070312,18.07583618164062,2
1596230603.037843,46,0,102935.2294840417,1.09770856656943,-1.762944162071782,0.5904919401941205,-8.902129173278809,-12.76420402526855,7.010374546051025,0.4740208983421326,1.410513520240784,1.837824583053589,2,0.5430543169259445,-0.5332984777138785,0.1258994975075554,0.6362657729501486,-0.8153796792030334,-0.5567697286605835,0.1586305201053619,-24.751220703125,-42.55683898925781,17.02987670898438,2
1596230603.088274,47,0,102935.2595830417,0.7223714789187788,-1.968025814339693,0.5165806763739224,-9.62535572052002,-13.51356315612793,3.654571294784546,-0.05160582065582275,0.7944566607475281,0.9248363971710205,2,0.4168118897775984,-0.703178475006908,-0.009804809558616734,0.5759442496821621,-0.8018096685409546,-0.4939098954200745,0.3363842368125916,-27.04832458496094,-42.59812927246094,13.71435546875,2
1596230603.098062,48,0,102935.2896810417,0.438780913811175,-2.183163296824493,0.5891432236486224,-6.200262069702148,-10.59268283843994,0.3439091742038727,-0.3374714255332947,-0.5758519768714905,-0.5452322959899902,2,0.3154587549208492,-0.7996483580303242,-0.1554259165162892,0.4867145479536614,-0.680340051651001,-0.5556488633155823,0.4779034554958344,-25.94396209716797,-43.40011596679688,12.13742065429688,2
1596230603.145541,49,0,102935.3197790417,0.3219634823932839,-2.402166791677088,0.6411864486348837,-1.276193618774414,-7.591806888580322,1.549962639808655,-0.1781454086303711,0.4602075815200806,0.6643795967102051,2,0.2542409303607012,-0.8552287058606367,-0.2350690410935725,0.385600938348323,-0.5400256514549255,-0.5981466770172119,0.592109203338623,-22.688232421875,-45.04767608642578,12.82736206054688,2
1596230603.158233,50,0,102935.3498780417,0.260668256240283,-2.377729244015211,0.6020117578873844,2.020835399627686,5.67909574508667,1.565850138664246,-1.748157501220703,1.415064215660095,1.758296489715576,2,0.2247438935871753,-0.8643468224750435,-0.2265230576431331,0.3886929520876768,-0.5701116919517517,-0.566301703453064,0.5952104926109314,-23.29045104980469,-44.45655822753906,13.40338134765625,2
1596230603.205713,51,0,102935.3799760417,0.4007640721737252,-2.24370950963332,0.5165880794428988,6.090229988098145,8.985651016235352,-2.53687596321106,-1.447547554969788,-0.02891641855239868,1.176785469055176,2,0.2820135011854323,-0.8315266669143933,-0.14199379261653,0.4570225717454947,-0.6799646019935608,-0.4939163327217102,0.5419363975524902,-26.61362457275391,-42.31485748291016,13.87008666992188,2
1596230603.218624,52,0,102935.4100750417,0.5593684034743464,-2.086330823070935,0.563176795697597,-1.022144913673401,3.682465314865112,-5.123566150665283,0.272397518157959,-0.02634447813034058,0.9753220081329346,2,0.3635896215300786,-0.7591007700812317,-0.09724638428946236,0.5311420295561923,-0.7356650829315186,-0.533875048160553,0.4168627858161926,-26.62211608886719,-42.42594146728516,13.66983032226562,2
1596230603.266293,53,0,102935.4401730417,0.5879256599251742,-2.153471638782294,0.7533236291679265,-1.363151550292969,-5.301954746246338,-5.310867309570312,3.04762601852417,0.5697490572929382,-1.448381185531616,2,0.4041539120273827,-0.733037971898561,-0.1821737403484442,0.5158756384948039,-0.6090604066848755,-0.6840668320655823,0.401370108127594,-19.07320404052734,-47.08993530273438,9.85162353515625,2
1596230603.278708,54,0,102935.4702710417,0.6439020560040214,-2.418452972373121,0.7974643120785659,-0.1467550247907639,-7.844262599945068,1.671826481819153,2.00980806350708,-0.1662595868110657,0.6105639934539795,2,0.4030265820370763,-0.7742237268142318,-0.241338300993561,0.4241500355196323,-0.4622425436973572,-0.7155871391296387,0.5237056016921997,-13.89670562744141,-48.40644073486328,10.89535522460938,2
1596230603.327595,55,0,102935.5003700417,0.4489057324961793,-2.456448185843856,0.7474065497802,-2.367636919021606,-3.584039211273193,6.543612003326416,-0.5050591826438904,-0.7337867617607117,1.271830558776855,2,0.3147246200151375,-0.827596163686704,-0.2656232074289507,0.3814149910293675,-0.4641188383102417,-0.6797388792037964,0.567933976650238,-14.92839050292969,-47.79436492919922,12.13125610351562,2
1596230603.338955,56,0,102935.5304680417,0.2312442849498678,-2.38205894608601,0.6671212661989949,-0.4499439597129822,0.2006954699754715,4.013899803161621,-2.023225784301758,1.173880100250244,-0.05691313743591309,2,0.2218011332485982,-0.8576993844006748,-0.2616426129135457,0.3830133430697321,-0.5409553647041321,-0.6187270283699036,0.5696879625320435,-19.60026550292969,-46.58050537109375,11.12448120117188,2
1596230603.387888,57,0,102935.5605660417,0.2380328399543456,-2.32220788465407,0.6398970561208064,1.71282422542572,2.875732660293579,-2.603746652603149,-0.8327681422233582,0.7781296968460083,-0.343278169631958,2,0.2277772015863907,-0.8496601273034718,-0.241552993754023,0.4096919516140017,-0.5861573219299316,-0.5971128940582275,0.5476095676422119,-25.10559844970703,-44.33502197265625,10.4586181640625,2
1596230603.399004,58,0,102935.590664375,0.368042586448586,-2.340245671216158,0.6974240032392026,0.1857742518186569,0.7606073021888733,-4.034541130065918,0.425028920173645,-0.1488837599754333,0.1231322288513184,2,0.289372041580438,-0.8263812437890965,-0.2422377622600463,0.4179461034396749,-0.5505719780921936,-0.6422452926635742,0.5332843065261841,-23.28248596191406,-45.24494171142578,10.50357055664062,2
1596230603.444576,59,0,102935.620762375,0.4445281436400745,-2.400402301320639,0.7647087231696219,-0.2292331457138062,-0.8350427746772766,-1.21785306930542,1.596757173538208,-0.6639894247055054,0.03162777423858643,2,0.3224397331004497,-0.8137423421135754,-0.2651501301220408,0.4044152203567373,-0.4871897101402283,-0.6923268437385559,0.5322879552841187,-17.49576568603516,-47.56349945068359,10.515380859375,2
1596230603.459218,60,0,102935.650861375,0.3988395408368965,-2.405465149517737,0.7481144556569221,-0.4915818572044373,-1.326291561126709,3.124351739883423,0.913690447807312,-0.225508987903595,0.1718389987945557,2,0.3009193393968069,-0.8252521991217057,-0.2678167592857942,0.3958289598122042,-0.4921349585056305,-0.6802579164505005,0.5431872606277466,-16.36962890625,-47.83910369873047,10.57778930664062,2
1596230603.505526,61,0,102935.680959375,0.2814027432225025,-2.369745540098685,0.6844689382901162,-0.4221072196960449,-1.61915647983551,3.304050445556641,-0.5822240114212036,0.1961598992347717,0.05600130558013916,2,0.2474624676466101,-0.8463842394341626,-0.2581116396966348,0.3946829031636965,-0.5403608679771423,-0.6322616338729858,0.5552079081535339,-20.62506103515625,-46.33796691894531,10.48184204101562,2
1596230603.519709,62,0,102935.711057375,0.2217774017346088,-2.365733101808412,0.6593788294856439,-0.3893192410469055,-0.2230120897293091,-0.2649593353271484,-1.055561780929565,0.5129258632659912,0.02590632438659668,2,0.2186350848250299,-0.8569075601146596,-0.2582462110427864,0.3888665736032486,-0.5535220503807068,-0.6126260161399841,0.5641837120056152,-23.85111236572266,-45.14603424072266,10.72134399414062,2
1596230603.566389,63,0,102935.741156375,0.258118890836316,-2.375237041015768,0.6864171458093774,0.2315714061260223,0.7687991857528687,-1.571140050888062,-0.3451159596443176,0.1697044372558594,-0.1462782621383667,2,0.2371712875027033,-0.8499346941237389,-0.2641998905611296,0.3893062608006956,-0.5364485383033752,-0.6337698698043823,0.5572783946990967,-23.15283966064453,-45.23175811767578,10.4171142578125,2
1596230603.579717,64,0,102935.771254375,0.2877070872871189,-2.37433544938572,0.703600813379305,0.09562917053699493,0.5253540277481079,-0.3212072253227234,0.2260342240333557,-0.1581193208694458,-0.1151293516159058,2,0.2524387405033824,-0.8430370329557548,-0.2658698345565236,0.3935436484599133,-0.5293120741844177,-0.6469675302505493,0.5488734841346741,-21.62783813476562,-46.40895843505859,10.19790649414062,2
1596230603.628228,65,0,102935.801352375,0.2921636833607809,-2.367933646806345,0.7012780606192945,0.01172277424484491,0.01691897585988045,0.1577723026275635,0.4345206022262573,-0.2588544487953186,-0.1450283527374268,2,0.2548104171004947,-0.8416325184246884,-0.2631557516970588,0.3968318911954515,-0.5338636040687561,-0.6451946496963501,0.5465472936630249,-21.47004699707031,-46.57765960693359,10.13632202148438,2
1596230603.63992,66,0,102935.831451375,0.2762191329111373,-2.370412697694664,0.6983913984414252,-0.2654763162136078,-0.6916931867599487,0.5233448147773743,0.1593127846717834,-0.07266199588775635,-0.1413263082504272,2,0.2473203990215477,-0.8446501227469174,-0.2653483348313789,0.3936867349879044,-0.5338029861450195,-0.642986536026001,0.5492024421691895,-21.96192169189453,-46.24837493896484,10.2860107421875,2
1596230603.689935,67,0,102935.861549375,0.2603883559281092,-2.377450948968329,0.6905175494101563,0.03011372685432434,-0.2841123938560486,0.32267165184021,-0.1521962881088257,0.06942886114120483,-0.04753613471984863,2,0.2384735912130517,-0.8493657546737798,-0.2658305286216602,0.3886416915489156,-0.5334107875823975,-0.6369362473487854,0.5565837025642395,-22.0040283203125,-46.11949920654297,10.20474243164062,2
1596230603.700012,68,0,102935.891647375,0.2598842275156961,-2.370958105253299,0.6859076464707972,0.2630391120910645,0.6651024222373962,-0.1657039076089859,-0.3626938462257385,0.07238119840621948,0.1386404037475586,2,0.2384062577051628,-0.8489800398786347,-0.2631219522263499,0.3913594390054313,-0.5390528440475464,-0.6333756446838379,0.5552092790603638,-22.53182220458984,-45.80022430419922,10.24050903320312,2
1596230603.746351,69,0,102935.921746375,0.2840095009150274,-2.362015813665069,0.6880301479843115,0.35660719871521,1.081674695014954,-0.7112901210784912,-0.05575519800186157,0.09407949447631836,0.208179235458374,2,0.2501114766630985,-0.8438892215503695,-0.2582020642940381,0.3982800635202686,-0.5430499315261841,-0.6350166797637939,0.5494095087051392,-22.43502807617188,-45.92474365234375,10.38665771484375,2
1596230603.76033,70,0,102935.951844375,0.313752383694268,-2.354143556227784,0.6912245839062561,0.6100670099258423,0.5382862687110901,-0.5299967527389526,0.2064448595046997,-0.04929643869400024,0.01433765888214111,2,0.2641157556325231,-0.8379048559112887,-0.2526185148596785,0.4053915660302312,-0.5459180474281311,-0.637481153011322,0.5436833500862122,-21.47116851806641,-46.08633422851562,10.45553588867188,2
1596230603.806995,71,0,102935.981943375,0.3340226837577821,-2.341924957578503,0.6924732632762648,0.2357780635356903,1.286383867263794,-0.1652209758758545,0.1745485663414001,-0.07301038503646851,0.1586353778839111,2,0.2743004211746464,-0.8324469838985259,-0.2473741160532432,0.4130344628868862,-0.5519489645957947,-0.6384427547454834,0.5364174246788025,-21.16978454589844,-46.10256958007812,10.6707763671875,2
1596230603.820564,72,0,102936.012041375,0.3467156984164503,-2.306515005125294,0.6863715152361959,0.4119707047939301,1.53459620475769,-0.2236367017030716,-0.3423010110855103,0.01187765598297119,-0.1670571565628052,2,0.2828828269172687,-0.8243482430397354,-0.2371023351785209,0.4291967092096907,-0.5734707713127136,-0.6337345242500305,0.5191454291343689,-21.51416015625,-46.44851684570312,10.34237670898438,2
1596230603.869401,73,0,102936.042139375,0.3803644679843773,-2.275286017957149,0.6887536567406872,0.7382622957229614,2.094181776046753,-0.9404861927032471,-0.1211131811141968,0.06730222702026367,-0.1595442295074463,2,0.3006572401624293,-0.8121630957567778,-0.2262186009259152,0.4458942218938312,-0.588249146938324,-0.6355754733085632,0.5000073313713074,-21.6474609375,-46.20093536376953,10.15835571289062,2
1596230603.880622,74,0,102936.072238375,0.4204293964971762,-2.227685725661564,0.6928989720747551,0.6953815817832947,2.696479082107544,-0.4253070950508118,0.0332341194152832,-0.08447325229644775,0.03458166122436523,2,0.3226557222853697,-0.7942368637129682,-0.211415417867716,0.4694515969054674,-0.6092827320098877,-0.6387703418731689,0.4698378145694733,-21.20996856689453,-46.63082885742188,9.904815673828125,2
1596230603.925265,75,0,102936.102336375,0.4525720239283551,-2.169083654696701,0.6886083172275167,0.7872564792633057,2.522288084030151,-0.5807992219924927,-0.1265764236450195,0.07991456985473633,0.1187167167663574,2,0.3404307277802676,-0.7755965131981504,-0.1921154382635568,0.4956296255370484,-0.6380132436752319,-0.6354632377624512,0.4348860681056976,-20.92194366455078,-46.58214569091797,9.641571044921875,2
1596230603.941167,76,0,102936.132434375,0.4969139236462219,-2.119361867645968,0.6979602261027872,0.8760546445846558,2.811172723770142,-0.930224597454071,0.1504124402999878,-0.01276946067810059,0.07222771644592285,2,0.3636766482217809,-0.7533261505178345,-0.1760457865716848,0.5188901396603237,-0.6537395119667053,-0.6426562666893005,0.3995219767093658,-20.99761199951172,-46.75103759765625,9.16522216796875,2
1596230603.986455,77,0,102936.162533375,0.5455000016999912,-2.057741676946674,0.6975723535791516,1.34901237487793,3.380403995513916,-0.3933576643466949,-0.03309512138366699,0.04283744096755981,0.1379940509796143,2,0.3866449134005117,-0.7278851920159526,-0.1513890046977927,0.5456833650127977,-0.6773220896720886,-0.6423590183258057,0.358622282743454,-20.65723419189453,-47.04830932617188,9.02642822265625,2
1596230604.001124,78,0,102936.192631375,0.6194145779541113,-1.98589597480956,0.6904853153503203,2.174625396728516,4.629082202911377,-0.8761358857154846,-0.09891116619110107,0.2247848510742188,0.3112576007843018,2,0.4162921883929821,-0.6943724069576385,-0.1133367028811955,0.5759363973098739,-0.7054663300514221,-0.6369113922119141,0.3109044432640076,-20.91794586181641,-47.02201843261719,8.957855224609375,2
1596230604.047171,79,0,102936.222729375,0.7264758417687416,-1.897739829895808,0.6913434760775286,2.944404602050781,5.788740158081055,-1.126269221305847,-0.01790165901184082,0.1519233584403992,0.4380583763122559,2,0.4562154555958173,-0.6446493938306701,-0.06266147701070868,0.6102197819661535,-0.729581356048584,-0.6375727653503418,0.2474107593297958,-20.96485900878906,-46.63622283935547,9.85162353515625,2
1596230604.061316,80,0,102936.252828375,0.8502431148371146,-1.789631537861581,0.7008050078494408,2.91222095489502,6.343832969665527,-1.14726722240448,0.07056939601898193,0.2042810320854187,0.5559787750244141,2,0.4978423438400883,-0.5788933857487051,-0.001588351820678291,0.6457809561865698,-0.7460951805114746,-0.6448332071304321,0.1659291088581085,-21.02311706542969,-46.59322357177734,10.3656005859375,2
1596230604.108313,81,0,102936.282926375,0.9770894169400611,-1.682395885378086,0.7218572387036636,3.213873624801636,6.551912307739258,-1.418384909629822,-0.09960043430328369,0.4075490236282349,0.5334712266921997,2,0.535182145140676,-0.505346801042041,0.06023972564290714,0.6742225319907387,-0.7459108233451843,-0.6607798337936401,0.08359063416719437,-21.33927917480469,-45.85672760009766,11.25701904296875,2
1596230604.121608,82,0,102936.313024375,1.111065451242611,-1.569310580611445,0.7643251823979743,3.228158235549927,6.778128147125244,-1.609976530075073,0.1247879862785339,0.2880172729492188,0.5862261056900024,2,0.5699763471725311,-0.4178405451614368,0.1224014799020907,0.6968171973509101,-0.7218488454818726,-0.692050039768219,-0.001072484999895096,-21.39546203613281,-45.71425628662109,11.39669799804688,2
1596230604.165256,83,0,102936.343123375,1.249797084117709,-1.460693976282305,0.8142895321897481,3.528244018554688,6.859398365020752,-1.30223560333252,0.4788679480552673,0.006746470928192139,0.3990934491157532,2,0.5976195359891403,-0.3242543189877343,0.1859259853174755,0.7093248162136672,-0.6822292804718018,-0.7272381186485291,-0.07542005181312561,-21.93553924560547,-45.61928558349609,12.21435546875,2
1596230604.181613,84,0,102936.373221375,1.404550605634911,-1.392533100021813,0.8701904025596646,3.515346050262451,4.801064014434814,-1.517234206199646,0.48638916015625,-0.2027235627174377,0.2313675284385681,2,0.6225572743891331,-0.235084670249635,0.2430662087646256,0.7057454912321059,-0.6344651579856873,-0.7644516825675964,-0.1143152788281441,-22.197509765625,-45.39496612548828,12.87039184570312,2
1596230604.227421,85,0,102936.403320375,1.541398705908646,-1.425908907599819,0.9329231886935225,2.80553674697876,1.05819571018219,-1.484616875648499,0.5470151305198669,0.06754094362258911,0.1892597675323486,2,0.6510311447749342,-0.1821258912306261,0.2596280784289058,0.6896245229988559,-0.5892488956451416,-0.803364098072052,-0.0859772190451622,-21.77438354492188,-44.60765075683594,15.71466064453125,2
1596230604.241812,86,0,102936.433418375,1.681126742180488,-1.471806982243449,0.9784863480363349,3.144101142883301,4.189886569976807,-0.9220806956291199,0.3057135939598083,0.4487124085426331,0.1158288717269897,2,0.6737928012268799,-0.1357074471403403,0.2770169977336845,0.6714525731462506,-0.5555463433265686,-0.829653263092041,-0.05517350137233734,-21.10105133056641,-44.20932006835938,17.56625366210938,2
1596230604.285401,87,0,102936.463516375,1.867810484703736,-1.437773214839759,1.027803567281561,3.52306079864502,7.849599361419678,-2.302209615707397,-1.418908596038818,-0.07604765892028809,-0.09014445543289185,2,0.6810505564873328,-0.04364424218668134,0.3343361423262846,0.649988348077889,-0.5121361017227173,-0.8561661839485168,-0.06853064149618149,-22.59009552001953,-42.69350433349609,19.42214965820312,2
1596230604.302049,88,0,102936.493615375,1.993826016796887,-1.308877936966658,1.163456038500815,2.24750828742981,7.026181697845459,-5.275553226470947,0.03048491477966309,0.4182240962982178,0.1012017726898193,2,0.6637850530996848,0.08999217726504005,0.3751107273173602,0.6407674423155638,-0.3826576769351959,-0.9181777834892273,-0.1025816202163696,-23.16648101806641,-42.60746765136719,18.74319458007812,2
1596230604.34622,89,0,102936.523713375,1.855370291648295,-1.084885848965687,1.278391844173568,-1.01864492893219,-5.541553974151611,-2.35628604888916,3.038817882537842,-3.021200895309448,-1.858220100402832,2,0.6379376101300571,0.1603930585695388,0.3653755630810828,0.6586428809316529,-0.2548901438713074,-0.9575535655021667,-0.13461934030056,-20.04491424560547,-44.98223876953125,16.3458251953125,2
1596230604.362229,90,0,102936.553811375,1.936418698261178,-1.410637569656373,1.279348077289669,2.787151575088501,-8.66231632232666,2.415219783782959,1.74202561378479,1.069593191146851,0.5914424657821655,2,0.6861052428773149,0.07967323753144212,0.2839472547171982,0.665045746186068,-0.2836627066135406,-0.9578287601470947,-0.04582354053854942,-16.89553070068359,-46.01802825927734,17.32760620117188,2
1596230604.406552,91,0,102936.58391025,2.154385429226262,-1.71377243882477,1.175907991718333,0.4220592677593231,0.8919684290885925,3.474931955337524,-1.233640670776367,0.7829395532608032,1.680313348770142,2,0.7258995519625284,0.02186488833754863,0.2811770037472449,0.6273207623170531,-0.3807799220085144,-0.9230395555496216,0.05481646582484245,-15.26220703125,-43.14949798583984,24.46701049804688,2
1596230604.422443,92,0,102936.61400825,2.129114649307673,-1.692701236986861,1.1323067016341,0.4425387680530548,1.453643798828125,-1.303997278213501,-1.85539174079895,-0.1474837064743042,0.2348437309265137,2,0.7251172730727048,0.004428720091442351,0.2943905049880003,0.6225106244803725,-0.4214214384555817,-0.9053939580917358,0.05162934586405754,-18.37628936767578,-41.60033416748047,24.89492797851562,2
1596230604.466973,93,0,102936.64410625,2.222903334677605,-1.708144821410174,1.228727014677431,0.1474929451942444,1.863275289535522,-4.277136325836182,0.4104167520999908,0.2317424416542053,0.3633660078048706,2,0.7201193933730248,0.06626940373627782,0.2884620558772798,0.6275557568014174,-0.3322787582874298,-0.9420625567436218,0.04592714831233025,-17.15376281738281,-42.18539428710938,25.00048828125,2
1596230604.482643,94,0,102936.67420525,2.253501695085135,-1.716697193263039,1.313051239887961,0.501219630241394,-0.3776783049106598,-0.638644278049469,1.197140216827393,-0.2107701301574707,-0.5791366100311279,2,0.7127174164107257,0.1027770687498485,0.2691499939039069,0.6395538394540856,-0.2521928250789642,-0.9669672250747681,0.03705848380923271,-13.28506469726562,-43.66040802001953,24.57049560546875,2
1596230604.528296,95,0,102936.70430325,2.333359500123031,-1.828191005942143,1.291747781264931,0.6402360200881958,-0.9694021940231323,0.7909085750579834,0.4579382538795471,-0.03795367479324341,0.2856376171112061,2,0.7260217228478455,0.08916798590400682,0.2608195634352868,0.6300117503254128,-0.2663675844669342,-0.9613179564476013,0.07011694461107254,-12.88288879394531,-43.42074584960938,25.310546875,2
1596230604.542831,96,0,102936.73440125,2.34494573338006,-1.845817926407818,1.279292810193277,0.02026612870395184,0.3118264675140381,-0.006417541764676571,-0.4994851648807526,-0.09289824962615967,0.2599145174026489,2,0.729372184981021,0.08390234039233918,0.2616787762174856,0.6264990316190358,-0.2765929698944092,-0.9578128457069397,0.0780467763543129,-13.00436401367188,-42.66693878173828,26.22140502929688,2
1596230604.587012,97,0,102936.76450025,2.368061253535828,-1.841974276100013,1.291376237499534,0.08729131519794464,1.49866247177124,-0.8423984050750732,-0.5256131887435913,0.1741162538528442,0.2611957788467407,2,0.7262692593241045,0.09732201083324687,0.2668196955044707,0.6259941943256155,-0.26571986079216,-0.9612155556678772,0.07387722283601761,-13.15288543701172,-42.67063140869141,26.16842651367188,2
1596230604.603422,98,0,102936.79459825,2.403909430125943,-1.830319831053946,1.318720553425637,0.05412187427282333,1.368113279342651,-0.9663897752761841,-0.001794397830963135,0.07974183559417725,0.1095970869064331,2,0.7190260831662967,0.1224907120685084,0.2743879843861127,0.6266649027103455,-0.2410629689693451,-0.968396782875061,0.06400496512651443,-13.29753112792969,-43.1729736328125,25.59332275390625,2
1596230604.645046,99,0,102936.82469625,2.422498693782746,-1.811072624165223,1.3410509744472,-0.08912470936775208,1.090997219085693,-0.4613909423351288,0.2457281053066254,-0.1090714931488037,0.02481663227081299,2,0.7119615918823039,0.142152167166686,0.2806830740911489,0.6277901877231009,-0.2211876660585403,-0.9737244248390198,0.05419309437274933,-13.11891937255859,-43.20633697509766,25.3330078125,2
1596230604.663234,100,0,102936.85479525,2.422563660157808,-1.782776970936148,1.350684599889659,-0.1474796235561371,0.8400588035583496,-0.2822798192501068,0.08342123031616211,0.02689564228057861,0.06683051586151123,2,0.7065608865324766,0.1540797241793084,0.2879507928737052,0.6277861685682613,-0.2134512960910797,-0.9758730530738831,0.04593769460916519,-13.55433654785156,-43.48687744140625,24.8199462890625,2
1596230604.708269,101,0,102936.88489325,2.400607132834943,-1.734776831699507,1.361879443499799,-0.2585628032684326,0.9854142069816589,-0.3729897737503052,0.01421108841896057,-0.0003668665885925293,0.1182602643966675,2,0.6997860880920752,0.1650096874181345,0.2946355816956682,0.6294928492517879,-0.2046189308166504,-0.9782561063766479,0.03385753184556961,-13.53003692626953,-43.44834899902344,24.31646728515625,2
1596230604.723848,102,0,102936.91499125,2.364445027466815,-1.66608629120054,1.372008888664747,-0.3472250401973724,1.246586084365845,-0.1964967548847198,0.007547825574874878,-0.004422187805175781,0.102314829826355,2,0.6913263308339941,0.1773771884114722,0.3040753203066395,0.630986168517121,-0.1965854465961456,-0.9803067445755005,0.01878952607512474,-14.12139892578125,-43.94490051269531,23.51010131835938,2
1596230604.769532,103,0,102936.94509025,2.30477503856965,-1.566001058285266,1.3772692954765,-0.3820425868034363,1.393796682357788,-0.1247354671359062,0.08208161592483521,0.008732378482818604,-0.06939959526062012,2,0.6806860866751586,0.1902769937739045,0.3179277981189815,0.6319677621893853,-0.1923202127218246,-0.981332004070282,-0.0009222340886481106,-14.31188201904297,-44.31209564208984,23.11444091796875,2
1596230604.783578,104,0,102936.97518825,2.251064634453757,-1.481667028211741,1.37759123671409,-0.421446293592453,0.7281997799873352,0.05503034964203835,0.2162139415740967,0.006735622882843018,0.1606430411338806,2,0.6722358203942274,0.1988809972555213,0.3293706672906592,0.632503299559199,-0.1912437528371811,-0.9813938736915588,-0.01709070056676865,-15.34007263183594,-44.54981994628906,21.87884521484375,2
1596230604.828675,105,0,102937.00528625,2.164943404562435,-1.37839925350597,1.371388765165011,-0.6334904432296753,0.6665164828300476,0.2159020900726318,0.1790127158164978,-0.01261794567108154,0.07848799228668213,2,0.6639263083292209,0.2006570965296295,0.338596232452165,0.6358391140582109,-0.1944346278905869,-0.9801840782165527,-0.03787717223167419,-15.65424346923828,-44.84825897216797,21.18240356445312,2
1596230604.843822,106,0,102937.03538525,2.098371487067419,-1.287666732138831,1.360097629735364,-0.4286155104637146,1.019170045852661,0.2694874703884125,-0.05766645073890686,0.01047271490097046,-0.0316474437713623,2,0.6552680531171824,0.2034953361802199,0.351097526752136,0.637137430431322,-0.2008169889450073,-0.9778850078582764,-0.05842685326933861,-16.66307830810547,-45.08486175537109,19.89505004882812,2
1596230604.890375,107,0,102937.06548325,2.042799076883497,-1.201258384494555,1.349728846365414,-0.6140475273132324,0.9624016284942627,0.07776081562042236,-0.09290438890457153,0.02854591608047485,0.1283844113349915,2,0.6454846329336698,0.2091669867087819,0.3649627582677829,0.6374959020654739,-0.2044695168733597,-0.975663959980011,-0.07919751852750778,-17.43330383300781,-45.03411865234375,19.11578369140625,2
1596230604.904053,108,0,102937.09558125,1.956457989594877,-1.094312422029989,1.342100814251926,-0.6793856024742126,0.6013273000717163,-0.09739763289690018,0.03866836428642273,0.02747803926467896,0.07010221481323242,2,0.6345613574079494,0.2129351048439025,0.3741288605734855,0.6418864105813333,-0.2014551311731339,-0.9739629626274109,-0.1039810478687286,-18.03954315185547,-45.42391967773438,17.6378173828125,2
1596230604.946145,109,0,102937.12568025,1.878529848335401,-1.000926492088653,1.335258288118728,-0.5625337958335876,0.665759265422821,-0.1340816617012024,-0.1759613752365112,0.05395835638046265,-0.07986748218536377,2,0.6248241391191709,0.215966353068985,0.3807074452221757,0.6465410620337512,-0.1964881718158722,-0.9723889231681824,-0.1259066611528397,-18.281982421875,-46.14202117919922,15.97940063476562,2
1596230604.964207,110,0,102937.15577825,1.806620424912252,-0.9048149086160741,1.333322898385545,-0.4976693987846375,0.9947314262390137,-0.4114765226840973,-0.2085792422294617,0.08424580097198486,-0.1040192246437073,2,0.6140763092937946,0.2241396279397679,0.3878046567584855,0.6498302015413325,-0.1849779039621353,-0.9719354510307312,-0.1453434228897095,-18.29124450683594,-46.08194732666016,15.45870971679688,2
1596230605.007706,111,0,102937.18587625,1.718900572616425,-0.7888746932158629,1.33084241068649,-0.5167647004127502,0.9455294013023376,-0.2815611660480499,0.1025500893592834,-0.04984807968139648,-0.1137759685516357,2,0.6011054730143265,0.2343925920125733,0.3952303932160292,0.6538542824478857,-0.1686331033706665,-0.9713489413261414,-0.1674646437168121,-18.20719909667969,-46.59914398193359,13.89913940429688,2
1596230605.02447,112,0,102937.21597525,1.674184623889585,-0.723240168767737,1.324897628964912,-0.3885872662067413,0.6540166139602661,-0.05922588333487511,0.1769199669361115,0.05784869194030762,0.07183432579040527,2,0.5923988794719628,0.2404550434319375,0.4020261117966619,0.6554540892585027,-0.1611051559448242,-0.969918966293335,-0.1824898719787598,-18.31913757324219,-46.79830169677734,13.27960205078125,2
1596230605.067456,113,0,102937.24607325,1.626162466807829,-0.659053929893316,1.316056493153165,-0.4433746039867401,0.4968741238117218,-0.1337895542383194,0.08171731233596802,0.07480901479721069,-0.09408396482467651,2,0.5836686194075781,0.2443793563290138,0.4078030747076197,0.658260147407065,-0.154313325881958,-0.9677289128303528,-0.1992193460464478,-18.23377227783203,-47.03205871582031,11.99346923828125,2
1596230605.084678,114,0,102937.27617125,1.605637090076445,-0.6235177175871236,1.310285191035426,-0.01131463889032602,0.6330954432487488,0.09151416271924973,0.08005103468894958,-0.03472900390625,-0.199783980846405,2,0.5778055725324934,0.2481679040533099,0.4130700491522473,0.6587310925806806,-0.1503965258598328,-0.9662584662437439,-0.2091068178415298,-18.29696655273438,-47.06924438476562,11.5440673828125,2
1596230605.123986,115,0,102937.30627025,1.620307324961552,-0.6217630027911972,1.309712370493673,-0.1545469015836716,0.3494996726512909,0.09242948889732361,0.1199377477169037,0.1017792224884033,0.06274920701980591,2,0.5754924496264164,0.2527812829754927,0.4185641170388934,0.6555258872937381,-0.1503516286611557,-0.9661107659339905,-0.2098201215267181,-18.92041778564453,-46.97713470458984,11.05841064453125,2
1596230605.144811,116,0,102937.33636825,1.624234081242988,-0.6229130117578221,1.301731725663756,-0.01200377009809017,0.2824151515960693,0.1858976185321808,-0.1731452941894531,-0.02866649627685547,0.002324938774108887,2,0.5736997864227593,0.2508336897941367,0.4218623442943211,0.655730938005231,-0.1550858467817307,-0.9640199542045593,-0.2159020304679871,-18.97877502441406,-47.09942626953125,10.90524291992188,2
1596230605.188266,117,0,102937.36646625,1.624533340313934,-0.6105959889164958,1.300523077815913,-0.05430889129638672,0.4909926652908325,-0.03980951756238937,-0.0502515435218811,0.04723900556564331,-0.08983314037322998,2,0.5708169658531348,0.2545435993498587,0.4258383659385914,0.6542457216239346,-0.153083398938179,-0.9636979699134827,-0.2187510877847672,-19.38426971435547,-46.89185333251953,10.57595825195312,2
1596230605.205007,118,0,102937.39656525,1.638803277819113,-0.6054598733441333,1.300000816191206,0.04722363501787186,0.3465931117534637,0.3024300038814545,0.1411888897418976,0.02689468860626221,0.0527225136756897,2,0.5677778967899342,0.2601042434445258,0.4321077799728575,0.6505820969178433,-0.1522441655397415,-0.9635583758354187,-0.2199480831623077,-19.38207244873047,-46.80719757080078,10.68698120117188,2
1596230605.249538,119,0,102937.42666325,1.660591144987743,-0.6243455495531843,1.292453942365484,-0.1086776033043861,-0.02425268106162548,0.176661029458046,0.06973540782928467,-0.03226268291473389,0.1454795598983765,2,0.5676174274360427,0.2575785975538378,0.4360390066207675,0.6491023195911282,-0.1606169492006302,-0.9615122079849243,-0.222927451133728,-20.04926300048828,-46.86388397216797,10.25503540039062,2
1596230605.265202,120,0,102937.45676125,1.666977614570684,-0.6361775917486047,1.288734513415347,-0.1121218502521515,-0.272908091545105,0.1943334639072418,0.06388455629348755,-0.01711571216583252,-0.03567701578140259,2,0.5686841307964612,0.2542735001445457,0.4358476176790219,0.6496001590494619,-0.1653670370578766,-0.9604836106300354,-0.2238866984844208,-20.11592864990234,-46.93818664550781,10.15316772460938,2
1596230605.309147,121,0,102937.48686025,1.68152112961061,-0.6553526732776375,1.28106401418213,-0.06442853063344955,-0.1385165303945541,0.2228593677282333,-0.003298491239547729,0.03048086166381836,-0.03039419651031494,2,0.5696301750159652,0.2495334027756679,0.4373853833490451,0.6495757189302519,-0.1741141527891159,-0.9583203792572021,-0.2265090942382812,-20.34203338623047,-46.68381500244141,10.16964721679688,2
1596230605.32582,122,0,102937.51695825,1.688990179852505,-0.6670950943365337,1.27721297562387,-0.08664463460445404,-0.1499533504247665,0.1066217198967934,-0.006662964820861816,0.007935285568237305,-0.04352235794067383,2,0.5705785393482374,0.2465091631336092,0.4376094887673338,0.6497471509248024,-0.1790439188480377,-0.9572130441665649,-0.227346733212471,-20.51737976074219,-46.39475250244141,9.99017333984375,2
1596230605.367504,123,0,102937.54705625,1.69708020547461,-0.6766647587522616,1.272537432548746,0.005343385972082615,-0.04422613605856895,0.1861025840044022,-0.01992228627204895,0.03708624839782715,-0.1800713539123535,2,0.5708515760872559,0.2440768166182771,0.43890077529474,0.6495546265841816,-0.1840119510889053,-0.9558495879173279,-0.2291099727153778,-20.86840057373047,-46.67316436767578,10.1534423828125,2
1596230605.385584,124,0,102937.57715525,1.715444781856483,-0.6960733652050984,1.272297148488532,0.1103800609707832,0.003010617103427649,0.02320021763443947,-0.06309148669242859,0.06992822885513306,-0.1428161263465881,2,0.5728354705284,0.2429479544322987,0.4393802214777787,0.6479049590174877,-0.1885707825422287,-0.955778956413269,-0.2256716340780258,-21.10244750976562,-46.46460723876953,10.2672119140625,2
1596230605.427173,125,0,102937.607253875,1.716462088514473,-0.693107714234244,1.270085555620093,-0.3210619688034058,0.6498310565948486,0.2768380641937256,0.1338870227336884,-0.09621500968933105,0.1953505277633667,2,0.5716806823331569,0.2434202022470122,0.4412233597766639,0.6474950654407378,-0.1892509758472443,-0.9551262259483337,-0.2278556078672409,-21.09777069091797,-46.43401336669922,10.19317626953125,2
1596230605.445743,126,0,102937.637351875,1.731651840431029,-0.7005207905550727,1.260596586594932,0.270694762468338,0.0970882773399353,0.1070115640759468,-0.187823086977005,0.08988773822784424,-0.1204453706741333,2,0.5698694503743585,0.2420047827908477,0.4468708856427035,0.6457468765006968,-0.1967684626579285,-0.9522725939750671,-0.2333649843931198,-21.53578948974609,-46.31330108642578,9.734222412109375,2
1596230605.48889,127,0,102937.667450875,1.74252482845636,-0.7077779032258827,1.265280058271704,0.0490775965154171,0.04345328360795975,-0.03849819675087929,-0.008114397525787354,0.03186285495758057,0.143889307975769,2,0.5709508765387085,0.244428492674945,0.4468949549727918,0.6438593084799937,-0.1955550163984299,-0.9536917805671692,-0.2285396158695221,-21.60906219482422,-46.15574645996094,9.922027587890625,2
1596230605.505997,128,0,102937.697548875,1.755299982279133,-0.7168112988571687,1.267264226441223,0.2478113323450089,0.1187523156404495,0.1853206604719162,0.09556907415390015,-0.02361011505126953,0.05147016048431396,2,0.5717293270044881,0.2458805391442638,0.44782007686339,0.6419700778537444,-0.1963678449392319,-0.9542867541313171,-0.2253366708755493,-21.77189636230469,-46.04296112060547,10.10516357421875,2
1596230605.544732,129,0,102937.727646875,1.778032427451954,-0.7413759007303308,1.265357811194925,-0.08726626634597778,-0.2496848255395889,0.2047620117664337,0.006600409746170044,0.001094400882720947,0.04774981737136841,2,0.5741514593652528,0.2438372898666871,0.448649888706919,0.6400053676685955,-0.2030716240406036,-0.9537152051925659,-0.2217869609594345,-21.93570709228516,-45.80354309082031,10.37246704101562,2
1596230605.566259,130,0,102937.757745875,1.787531995780987,-0.7571860979837866,1.258780136891633,-0.08866208046674728,-0.2560518085956573,0.1766423881053925,-0.01860418915748596,-0.02340781688690186,-0.0007970333099365234,2,0.575552713090552,0.23913917900902,0.4491612226570447,0.6401607269969752,-0.2108568996191025,-0.9517166018486023,-0.2231030613183975,-22.21050262451172,-46.01093292236328,10.57150268554688,2
1596230605.60425,131,0,102937.787843875,1.790231609183909,-0.7650609836988137,1.256216383980964,-0.04211878031492233,-0.05950722470879555,0.03576797991991043,-0.06029880046844482,0.02741169929504395,0.01125913858413696,2,0.5766149132050709,0.2364692656440409,0.4485442945473532,0.6406290739818477,-0.2142964899539948,-0.9509264230728149,-0.2231950610876083,-22.27278137207031,-45.98124694824219,10.346923828125,2
1596230605.626704,132,0,102937.817941875,1.790742317318214,-0.7646655654512496,1.252307652476833,-0.1475057005882263,0.1516346633434296,0.130901575088501,-0.08010527491569519,0.01888495683670044,0.03054124116897583,2,0.5758817784737149,0.2353298655092194,0.4500213417976296,0.6406721398784636,-0.2167796045541763,-0.9497097730636597,-0.2259600609540939,-22.48688507080078,-45.98427581787109,10.36376953125,2
1596230605.663175,133,0,102937.848040875,1.791758483221939,-0.7586068827552572,1.248618735650246,0.01355455536395311,0.2731627225875854,0.07394908368587494,-0.01611292362213135,0.0653146505355835,-0.01954078674316406,2,0.5738392640524738,0.2362269525592653,0.4532179277075961,0.6399209995452005,-0.2178153097629547,-0.9485481977462769,-0.2298106551170349,-22.66972351074219,-45.95742797851562,10.22088623046875,2
1596230605.686629,134,0,102937.878138875,1.800101845974135,-0.758644795182144,1.247951539477894,0.03218809887766838,0.2785741984844208,0.06916195154190063,-0.03633856773376465,-0.0004209280014038086,-0.04873168468475342,2,0.5727577217994051,0.2383648925662533,0.4560767806405891,0.6380632594544573,-0.2182592302560806,-0.9483367204666138,-0.2302615344524384,-22.91213226318359,-46.04517364501953,9.83111572265625,2
1596230605.733132,135,0,102937.908236875,1.804849358660749,-0.7516270133048398,1.24639172341035,-0.03691047057509422,0.3989547789096832,0.03903152421116829,-0.01919692754745483,0.012259840965271,-0.0540391206741333,2,0.5703473048807368,0.2413914088973799,0.4600716644304311,0.6362140866210859,-0.2176480442285538,-0.947840690612793,-0.2328682839870453,-23.10195922851562,-45.85718536376953,9.86578369140625,2
1596230605.746802,136,0,102937.938335875,1.810155794019692,-0.7481019276423773,1.246454619253464,0.115155354142189,0.1050701662898064,0.05984001606702805,-0.0166841447353363,0.03504610061645508,-0.03736156225204468,2,0.5688994986657623,0.2440455135358567,0.4627422398869497,0.6345588159165327,-0.216785192489624,-0.9478607177734375,-0.2335902899503708,-23.37696838378906,-45.76776123046875,9.516021728515625,2
1596230605.790941,137,0,102937.968433875,1.821810556779897,-0.7588243031965936,1.246973008075539,0.05758418887853622,-0.01445814967155457,0.1074360907077789,0.01664215326309204,-0.0234566330909729,0.03218764066696167,2,0.5700357803846533,0.2441545647849921,0.4632242028760473,0.633143753854755,-0.2189388573169708,-0.9480258226394653,-0.2308955192565918,-23.22334289550781,-45.78995513916016,9.620819091796875,2
1596230605.807054,138,0,102937.998531875,1.831317024962033,-0.7669417545472573,1.244289509881875,0.01721644774079323,0.03005958721041679,0.1765243262052536,9.045004844665527e-05,0.0291866660118103,0.06494969129562378,2,0.570372825244616,0.2433185098793758,0.4647398100028373,0.6320505491181767,-0.2225707173347473,-0.9471685290336609,-0.2309418916702271,-23.61324310302734,-45.82804107666016,9.559600830078125,2
1596230605.848476,139,0,102938.028630875,1.849707734253736,-0.7869580267683042,1.240922035800041,0.1425735950469971,-0.3193301558494568,0.1582370698451996,-0.04937705397605896,0.01992297172546387,-0.006804704666137695,2,0.5723308617492155,0.2410219693443149,0.4658616784197535,0.6303323139217392,-0.2294061630964279,-0.9460830688476562,-0.2286915928125381,-23.62828826904297,-45.57234954833984,9.672760009765625,2
1596230605.867239,140,0,102938.058728875,1.859928823470921,-0.808372048651207,1.240231706956727,0.01225100178271532,-0.3781591653823853,0.0771356076002121,-0.02795100212097168,0.01572871208190918,0.02769780158996582,2,0.575990093426922,0.2369523671173764,0.4631493328443327,0.6305408534065096,-0.2347225546836853,-0.9458592534065247,-0.2241779714822769,-23.97573852539062,-45.39212036132812,9.98858642578125,2
1596230605.907871,141,0,102938.088826875,1.862453584730764,-0.8179843717289282,1.238360600893593,-0.06570561230182648,-0.1403679549694061,0.04887954890727997,-0.02021175622940063,0.006642818450927734,0.01646387577056885,2,0.5776699564020684,0.2339593498749491,0.4617534151770207,0.6311451653971554,-0.2381575256586075,-0.9452502727508545,-0.2231208831071854,-23.81028747558594,-45.48140716552734,10.0272216796875,2
