loggingTime,loggingSample,identifierForVendor,motionTimestamp_sinceReboot,motionYaw,motionRoll,motionPitch,motionRotationRateX,motionRotationRateY,motionRotationRateZ,motionUserAccelerationX,motionUserAccelerationY,motionUserAccelerationZ,motionAttitudeReferenceFrame,motionQuaternionX,motionQuaternionY,motionQuaternionZ,motionQuaternionW,motionGravityX,motionGravityY,motionGravityZ,motionMagneticFieldX,motionMagneticFieldY,motionMagneticFieldZ,motionMagneticFieldCalibrationAccuracy
1596230626.676806,1,0,102958.8565894167,1.95591026771707,-0.8978098447384194,1.174962561269768,-0.1570506542921066,0.1865705549716949,-0.03869165107607841,-0.0002601146697998047,0.01015913486480713,0.07694613933563232,2,0.578575871011221,0.2123207112822901,0.4875180924192895,0.6184625589722228,-0.3015075922012329,-0.9226754307746887,-0.2403397560119629,-26.15238189697266,-44.09855651855469,9.921783447265625,2
1596230626.695066,2,0,102958.8866864167,1.951246170742201,-0.891073753221354,1.17788702904385,0.07150764763355255,0.1029963716864586,-0.1949468851089478,-0.1553732752799988,0.08760726451873779,-0.05292403697967529,2,0.5777549300563107,0.2141614095895444,0.4871219758783965,0.6189074040752286,-0.2977820932865143,-0.9237990379333496,-0.2406682670116425,-26.14042663574219,-44.15721893310547,9.93365478515625,2
1596230626.725116,3,0,102958.9167844167,1.94892384017152,-0.8848043116686628,1.184211302251058,0.1600060313940048,0.1253073364496231,-0.15118408203125,-0.02403074502944946,0.01005655527114868,-0.03988468647003174,2,0.5771850920906235,0.2178185105230088,0.4862644896530291,0.6188371757608129,-0.2917408347129822,-0.9262019991874695,-0.2388249337673187,-25.61016082763672,-44.17957305908203,9.937347412109375,2
1596230626.755292,4,0,102958.9468824167,1.947748933299921,-0.8799969967195082,1.190307624342615,0.05870341509580612,0.1109642162919044,-0.1402590870857239,-0.01501211524009705,-0.008367180824279785,0.01296669244766235,2,0.5768276512675258,0.2212658507382484,0.4854063015368425,0.6186211573330853,-0.2862320840358734,-0.928483247756958,-0.2366225719451904,-25.67572784423828,-44.35358428955078,10.05462646484375,2
1596230626.787131,5,0,102958.9769804167,1.950969868133556,-0.8815886683132221,1.19082536129602,0.1303564310073853,-0.01183384750038385,0.02629968337714672,0.02048486471176147,-0.01514571905136108,-0.02378588914871216,2,0.5769149450540605,0.2218981724670593,0.4857828629694915,0.618017224004787,-0.2862370014190674,-0.9286754131317139,-0.2358606904745102,-25.55389404296875,-44.48088836669922,9.9609375,2
1596230626.815515,6,0,102959.0070784167,1.958544264565106,-0.8914884558114906,1.189947695630124,0.1134486421942711,-0.2321925759315491,0.05944270268082619,-0.06454777717590332,0.0325736403465271,-0.01867395639419556,2,0.5783847229900131,0.2206973724607299,0.4855341662756845,0.6172684622258575,-0.2891920208930969,-0.9283495545387268,-0.2335275709629059,-25.79705047607422,-44.30517578125,10.16748046875,2
1596230626.848216,7,0,102959.0371764167,1.964004643457833,-0.9013674699170716,1.194386950484323,0.08983203023672104,0.5006023049354553,-0.3496551215648651,0.03601449728012085,0.0567283034324646,0.01883864402770996,2,0.5806464200044978,0.2209068744288653,0.4829806619282416,0.617073455156073,-0.2882504463195801,-0.9299904704093933,-0.2280997782945633,-25.68962860107422,-44.25583648681641,10.63522338867188,2
1596230626.875702,8,0,102959.0672744167,1.951766569726574,-0.8778105874513855,1.206154844962815,0.228317990899086,0.02707421220839024,-0.1529060900211334,0.05244994163513184,-0.04901379346847534,-0.1267863512039185,2,0.5775968020487818,0.229069186293556,0.4823695143814313,0.6174373603703884,-0.2743584215641022,-0.9342516660690308,-0.227818489074707,-25.12379455566406,-44.67347717285156,10.71759033203125,2
1596230626.908542,9,0,102959.0973724167,1.961551465690314,-0.8871744495959089,1.209065556005787,0.06544046849012375,-0.04739992693066597,0.009068463928997517,0.0642724335193634,0.008659839630126953,0.07215011119842529,2,0.5790427335435203,0.2301063954285036,0.4817740653788454,0.6161610255443757,-0.2743703722953796,-0.9352856874465942,-0.2235211133956909,-24.93846893310547,-44.67987823486328,10.68218994140625,2
1596230626.935874,10,0,102959.1274704167,1.967639646005768,-0.8955414327471908,1.212535692083957,0.1860772967338562,-0.02713917568325996,-0.0700758770108223,0.08940663933753967,0.003108680248260498,-0.02403938770294189,2,0.5807141740659114,0.2306019497623597,0.4801405966195214,0.6156776067028746,-0.2736959755420685,-0.9365081191062927,-0.2191875725984573,-24.82555389404297,-44.62820434570312,11.05068969726562,2
1596230626.96858,11,0,102959.1575684167,1.978696425719836,-0.9086521323101706,1.213785679215983,0.09742481261491776,-0.1950974315404892,0.1591560989618301,0.01321914792060852,-0.004946708679199219,-0.0003650784492492676,2,0.5827105169365046,0.2302569116552378,0.4793367777050556,0.6145457129057381,-0.2756223678588867,-0.9369457364082336,-0.2148604094982147,-24.83485412597656,-44.59556579589844,10.89431762695312,2
1596230626.996092,12,0,102959.1876664167,1.992469516998205,-0.9276565558874681,1.21387820612968,0.1195830404758453,-0.1384509205818176,0.00225695688277483,-0.1235401332378387,0.03651392459869385,0.05182003974914551,2,0.5856881487081531,0.2284806416796773,0.4779848959515207,0.6134300772367588,-0.2795863747596741,-0.9369780421257019,-0.2095319777727127,-24.90414428710938,-44.40605926513672,11.50848388671875,2
1596230627.028854,13,0,102959.2177644167,1.999276029641979,-0.9344215684600458,1.217064971290889,0.1739218086004257,0.04629378393292427,-0.05150102823972702,-0.07696855068206787,0.02864992618560791,0.009829521179199219,2,0.5868142789808308,0.2296058141619246,0.4770867616922806,0.6126324288780469,-0.2785947024822235,-0.9380866885185242,-0.2058603465557098,-24.88445281982422,-44.44235992431641,11.71255493164062,2
1596230627.056148,14,0,102959.2478624167,2.00696285027612,-0.9396883629766968,1.221292624989521,0.09064929932355881,0.03830516338348389,-0.05585694313049316,0.04137682914733887,-0.01319384574890137,-0.001419961452484131,2,0.5875563039822804,0.2318479261994071,0.4765614406758999,0.6114845576407006,-0.2764705121517181,-0.9395427703857422,-0.2020482569932938,-25.03941345214844,-44.33899688720703,11.86886596679688,2
1596230627.086185,15,0,102959.2779604167,2.018336987145993,-0.9518040583874139,1.22433232183792,0.3569612205028534,-0.04789608716964722,0.07875122874975204,0.08124279975891113,-0.01475262641906738,-0.09031212329864502,2,0.5893763016270042,0.2326427176517062,0.4755111740245229,0.6102475592247196,-0.276570737361908,-0.9405792951583862,-0.1970258802175522,-24.85747528076172,-44.25999450683594,12.04757690429688,2
1596230627.116421,16,0,102959.3080584167,2.055368546451994,-0.9929581873083814,1.228378956834118,0.2540130615234375,-0.2777822017669678,0.002975369337946177,-0.01909878849983215,0.05720442533493042,0.1237044930458069,2,0.5951359288061905,0.2326225782641839,0.473305461844824,0.6063679249082807,-0.2812524437904358,-0.9419457316398621,-0.1833999305963516,-25.15980529785156,-44.11949920654297,12.55194091796875,2
1596230627.146496,17,0,102959.3381564167,2.064911581589375,-1.008016105174959,1.229254236993378,0.2129867821931839,-0.2533745765686035,0.2307515293359756,0.08667528629302979,-0.06896281242370605,-0.1243720650672913,2,0.5976435024269943,0.2312360220846996,0.4714293664874128,0.6058932892201989,-0.2832846939563751,-0.9422392845153809,-0.1787042915821075,-24.78610992431641,-44.09104156494141,12.72052001953125,2
1596230627.176939,18,0,102959.3682544167,2.092778944671374,-1.039671886262418,1.223419043598484,0.03954814746975899,-0.2358004599809647,0.4071623086929321,0.05670559406280518,-0.06967806816101074,-0.1549785137176514,2,0.6015685539905846,0.2278159788121657,0.4722129986070961,0.6026856515966659,-0.293534129858017,-0.9402688145637512,-0.1724303066730499,-25.15135955810547,-43.79781341552734,13.15899658203125,2
1596230627.209028,19,0,102959.3983524167,2.11826866365327,-1.074210088634781,1.216613537707063,0.1308561116456985,-0.4967165887355804,0.3126635551452637,0.01352691650390625,-0.1255611777305603,-0.209710419178009,2,0.6065096262551661,0.222548610624993,0.4716062056858115,0.6001715283163067,-0.304932713508606,-0.9379302263259888,-0.1652363836765289,-25.44084167480469,-43.47089385986328,13.53607177734375,2
1596230627.236957,20,0,102959.4284504167,2.120333072569947,-1.103536156111733,1.195645395980479,-0.5924461483955383,-1.936363339424133,0.951299786567688,0.2248764634132385,-0.08496963977813721,-0.2173476219177246,2,0.612264037252688,0.2064190326257151,0.4699150786189913,0.6014182222084332,-0.3271358609199524,-0.9304523468017578,-0.1650478690862656,-25.87477111816406,-43.22103118896484,14.0269775390625,2
1596230627.267482,21,0,102959.4585474167,2.099640205287985,-1.16941571608896,1.160064168158024,-0.8493971228599548,-3.388210773468018,0.9837070107460022,0.4673784673213959,0.08073997497558594,0.02301770448684692,2,0.6278949733998842,0.1665848029116472,0.4543935970964919,0.6095275711385072,-0.3675468564033508,-0.9168287515640259,-0.1559948176145554,-26.29838562011719,-43.29050445556641,14.51187133789062,2
1596230627.29706,22,0,102959.4886454167,2.083523564004395,-1.257050710055069,1.122327457833433,-0.2076086550951004,-3.118791818618774,1.112989068031311,0.01384276151657104,0.2857555150985718,0.1563267707824707,2,0.6469915289253113,0.1203929497425538,0.4333025611173867,0.6157568169641854,-0.4124206006526947,-0.9011120200157166,-0.1338150054216385,-25.86997985839844,-42.58666229248047,16.04922485351562,2
1596230627.327305,23,0,102959.5187434167,2.11596243088095,-1.350097973335523,1.1008813878521,0.7503899335861206,-0.9473776817321777,0.2680600583553314,-0.5490298271179199,0.6559418439865112,0.5058671236038208,2,0.664461236304279,0.09449142416905915,0.4193996383032669,0.6112828148078464,-0.4418276250362396,-0.8916068077087402,-0.09912527352571487,-25.54339599609375,-41.77069091796875,18.28277587890625,2
1596230627.357262,24,0,102959.5488414167,2.173203186359709,-1.391398845299604,1.120065793964699,0.7705727219581604,1.370360493659973,-0.9914098978042603,-0.5932894945144653,0.3178554773330688,0.3434788584709167,2,0.6704061910473442,0.1081199634698319,0.4171014372259311,0.6040629785401361,-0.4286322295665741,-0.9001290798187256,-0.07773122191429138,-25.54251098632812,-41.23262786865234,19.2197265625,2
1596230627.388373,25,0,102959.5789394167,2.190929809173501,-1.366967814653585,1.15328519239119,0.3912388980388641,0.8408007621765137,-0.9534198045730591,-0.164765477180481,-0.2015201449394226,-0.3501734733581543,2,0.6641590316432573,0.1336168300474274,0.4203758244490595,0.6035921848565027,-0.3970926403999329,-0.9141009449958801,-0.08207864314317703,-24.99868011474609,-41.75770568847656,19.06744384765625,2
1596230627.417382,26,0,102959.609038125,2.207500711559031,-1.405673889944907,1.179964070370452,0.2717621624469757,-2.148227453231812,-0.7703081965446472,0.4589664936065674,-0.4027992486953735,-0.2578539848327637,2,0.6707209565418593,0.1371997565406415,0.4042059622964497,0.6065699887177411,-0.3757763206958771,-0.9245923161506653,-0.06261925399303436,-24.37392425537109,-42.06655883789062,19.43182373046875,2
1596230627.44731,27,0,102959.639136125,2.255972182445827,-1.503554218071099,1.197289305610477,1.024714589118958,-0.9595497846603394,-0.1581496447324753,0.224263995885849,0.01331114768981934,-0.02903646230697632,2,0.686140942114788,0.1302002372487615,0.3803435834922013,0.6062980075303918,-0.3640583157539368,-0.9310534000396729,-0.02451701089739799,-21.88222503662109,-42.32981109619141,21.45584106445312,2
1596230627.477627,28,0,102959.669234125,2.320391953175155,-1.573400074056418,1.204755515990835,0.6561856269836426,0.4739978015422821,-0.6801775693893433,-0.5460110902786255,-0.04746067523956299,0.03098189830780029,2,0.6946301170598956,0.1339961524566637,0.3733935657957963,0.6000928521345484,-0.3579205572605133,-0.9337517619132996,0.0009319367818534374,-21.23149108886719,-41.89164733886719,22.53469848632812,2
1596230627.507516,29,0,102959.699332125,2.39367643830583,-1.604874809136632,1.235191016363604,0.7468129396438599,1.619775772094727,-1.060862183570862,-0.2399550974369049,0.1297071576118469,0.09081804752349854,2,0.6927190924309561,0.1604708470008454,0.3753151501875978,0.5945821748928328,-0.3291497230529785,-0.9442111253738403,0.0112212672829628,-20.50118255615234,-41.82841491699219,23.07974243164062,2
1596230627.53783,30,0,102959.729430125,2.460331833061097,-1.628122172481182,1.26030550713732,0.7934132218360901,0.9954055547714233,-0.6901537179946899,0.3268677294254303,0.05380445718765259,0.05446481704711914,2,0.6888416071240615,0.1850668161211982,0.3796848691316684,0.5891409420485484,-0.3050245940685272,-0.952183723449707,0.0175049714744091,-20.60948181152344,-41.69038391113281,23.20208740234375,2
1596230627.567753,31,0,102959.759528125,2.530718396269088,-1.674474695860929,1.270948613694374,0.3395729064941406,0.4659263491630554,0.01186914276331663,0.6915006637573242,-0.1992250680923462,0.3221511840820312,2,0.6896283467807824,0.1992418677404765,0.3813010470601905,0.582516090064191,-0.2937888205051422,-0.955381453037262,0.03056915663182735,-20.41641235351562,-41.51325988769531,23.56008911132812,2
1596230627.597973,32,0,102959.789626125,2.552807491600499,-1.698171684578473,1.256742939854423,0.2988454699516296,-0.4166896343231201,0.6522352695465088,0.2657453417778015,-0.02785587310791016,0.0004934072494506836,2,0.6938465964890419,0.1954428414083973,0.3834406792864781,0.577366640916416,-0.3064136803150177,-0.9510892033576965,0.03924200683832169,-20.73931121826172,-41.38108825683594,23.8128662109375,2
1596230627.629824,33,0,102959.819724125,2.570046760265047,-1.726500371253178,1.240955286441275,0.2308979332447052,-0.31097611784935,0.3197680413722992,-0.1830634772777557,0.07979714870452881,-0.05362677574157715,2,0.6997595557953731,0.1882829831044187,0.3828106128998052,0.5730113911112424,-0.3199741840362549,-0.9460938572883606,0.05022783577442169,-21.16413116455078,-40.64291381835938,24.479248046875,2
1596230627.658156,34,0,102959.849822125,2.596265748553057,-1.753512454182238,1.233436585203013,0.3207913041114807,0.3395307958126068,0.1070176139473915,-0.2589268684387207,0.01281750202178955,-0.007234454154968262,2,0.7035249626130059,0.1874136256750584,0.3828141982507715,0.5686668700224002,-0.3254868388175964,-0.9436318874359131,0.06014247983694077,-21.29759979248047,-40.38379669189453,24.83267211914062,2
1596230627.688134,35,0,102959.879920125,2.627350154816959,-1.76225233102061,1.227750369664351,0.3842478096485138,0.6549479961395264,0.1791707575321198,0.04620110988616943,0.009352803230285645,0.07411658763885498,2,0.7030806411427692,0.1941135743720985,0.3900064318318652,0.562043224543328,-0.3302115201950073,-0.9417344927787781,0.06400493532419205,-21.80485534667969,-40.162841796875,25.09457397460938,2
1596230627.71845,36,0,102959.910017125,2.635492358523562,-1.763539451418608,1.220246453842392,-0.09700213372707367,-0.05920404568314552,0.2819907367229462,0.2943645417690277,-0.0655440092086792,0.2990610599517822,2,0.7036588233329655,0.1943067252314387,0.3937594560488139,0.558625695917039,-0.3370551764965057,-0.9391840100288391,0.06578168272972107,-22.35527801513672,-39.74579620361328,25.02902221679688,2
1596230627.748678,37,0,102959.940115125,2.603264494438811,-1.74031783486571,1.207130643889425,-0.5744732618331909,-0.6442756056785583,0.7824191451072693,0.3912896811962128,-0.100617527961731,0.2828924655914307,2,0.70401643242468,0.1853814942525036,0.3963056965070756,0.559407204388484,-0.3506039679050446,-0.9345992207527161,0.0600108727812767,-22.68412780761719,-39.41493988037109,25.16256713867188,2
1596230627.778606,38,0,102959.970213125,2.526308969520823,-1.715382317927658,1.179257587948048,-0.859670877456665,-2.307011604309082,1.276998162269592,0.5483999252319336,-0.07252073287963867,0.2990353107452393,2,0.709262597230565,0.1563277606592217,0.3908456408156012,0.565462573376301,-0.3776293992996216,-0.9243229627609253,0.05498360097408295,-23.06817626953125,-39.39531707763672,25.0740966796875,2
1596230627.808659,39,0,102960.000311125,2.406540352769431,-1.681965015387827,1.13456775140209,-2.255004405975342,-3.165321826934814,2.371188402175903,0.6375758051872253,-0.5041598081588745,0.3910261392593384,2,0.7153088728655428,0.1084924748590469,0.3808499051980088,0.5757742964499012,-0.4199162721633911,-0.906351625919342,0.04687480255961418,-22.88673400878906,-39.56005859375,25.26263427734375,2
1596230627.83881,40,0,102960.030409125,2.198889946904616,-1.645060842366897,1.042029634470993,-4.184123992919922,-6.965789318084717,4.439867496490479,0.7399729490280151,-0.8377994298934937,-0.1130868196487427,2,0.7200994997388067,0.01309860268981755,0.3600980127149875,0.5929710623569916,-0.5030786395072937,-0.8634299039840698,0.03742972761392593,-23.39883422851562,-39.60311126708984,24.60089111328125,2
1596230627.868803,41,0,102960.060507125,1.902805583937906,-1.685710691840235,0.8892950243102064,-5.996950149536133,-10.65291881561279,6.547458171844482,1.015379548072815,-0.4088517427444458,0.7285722494125366,2,0.7148967922856427,-0.1582361438584115,0.3026353022962949,0.6101604666315721,-0.6258049011230469,-0.7766278386116028,0.0722322016954422,-22.95400238037109,-39.62519073486328,24.65264892578125,2
1596230627.899332,42,0,102960.090605125,1.564951308854645,-1.791504416273362,0.7091355545233535,-7.429265022277832,-12.75730895996094,7.273712158203125,1.278876662254333,0.7171710133552551,1.42140007019043,2,0.6700373241142592,-0.3662269195376627,0.2209797080605671,0.606709037936593,-0.7405156493186951,-0.6511779427528381,0.1661443412303925,-22.87685394287109,-40.15838623046875,23.84622192382812,2
1596230627.929968,43,0,102960.120703125,1.220454007597023,-2.008767120894072,0.6057997235932872,-7.472832202911377,-14.9627046585083,4.924578666687012,1.902821898460388,0.9933944940567017,2.037440299987793,2,0.5927224466339952,-0.5683276093051779,0.08722888785887162,0.5639813736081483,-0.7444574236869812,-0.5694196820259094,0.3486323356628418,-21.89599609375,-40.7728271484375,23.43063354492188,2
1596230627.959284,44,0,102960.150801125,0.8832005856448738,-2.234348090722758,0.5855198683186422,-7.920865535736084,-11.48280239105225,6.610765933990479,0.7828584909439087,0.3491349220275879,2.448545455932617,2,0.4821548747608563,-0.7240080885485294,-0.05520124835590676,0.4901956324828483,-0.6565800905227661,-0.552632749080658,0.5133220553398132,-18.49254608154297,-43.38428497314453,20.8162841796875,2
1596230627.989098,45,0,102960.180899125,0.5514935970883477,-2.352921287758586,0.5727525609680147,-4.495125293731689,-8.828616142272949,5.174603939056396,-0.9261104464530945,0.8602607846260071,1.332508325576782,2,0.3455591109858639,-0.8226453882094834,-0.1506029354771848,0.4256316145228407,-0.5962033271789551,-0.5419473648071289,0.5923130512237549,-20.1461181640625,-44.0596923828125,18.27294921875,2
1596230628.019405,46,0,102960.210997125,0.4120646328358964,-2.37096330884378,0.5494244180004545,0.7461218237876892,3.575011491775513,1.654996633529663,-2.672706365585327,1.97831654548645,1.734183430671692,2,0.2822702488957355,-0.8522105733260081,-0.1720562993178279,0.4055334391962784,-0.5940670371055603,-0.5221964716911316,0.6118786931037903,-23.58489990234375,-43.21335601806641,16.32492065429688,2
1596230628.049416,47,0,102960.241095125,0.5332711455641751,-2.262436453805944,0.4873485905408304,5.71499490737915,7.863688468933105,-2.930792093276978,-1.961110591888428,1.379584550857544,0.5356175899505615,2,0.3304401443503623,-0.8201114474907473,-0.1018009197447702,0.455920106618811,-0.6805323958396912,-0.4682848155498505,0.5635469555854797,-25.66284942626953,-42.31253051757812,16.34320068359375,2
1596230628.079676,48,0,102960.271193125,0.7296437892482786,-2.157927117818838,0.4982915248257327,2.25165843963623,3.573096036911011,-4.450151920318604,-0.09429669380187988,0.6432176828384399,0.2463723421096802,2,0.413562712164772,-0.7564864637465234,-0.03975920481435247,0.5050877398124886,-0.7312982082366943,-0.4779255092144012,0.4866117835044861,-25.38356781005859,-41.54478454589844,18.11346435546875,2
1596230628.109527,49,0,102960.301291125,0.822970865250545,-2.214369990381298,0.6362453291819209,-1.680271029472351,-3.71663236618042,-5.75528621673584,1.993376493453979,-0.2249143123626709,-0.3717856407165527,2,0.4679968976016134,-0.7227046389711138,-0.08652952841407663,0.5011882051239862,-0.6434310078620911,-0.594179630279541,0.4826461970806122,-22.76026916503906,-43.03183746337891,17.83416748046875,2
1596230628.139705,50,0,102960.331388125,0.8985684892898295,-2.404342328301198,0.7465053059459889,-0.4441072940826416,-4.832798957824707,-1.141458868980408,1.792224884033203,-0.6510770320892334,0.2087812423706055,2,0.4956033576833131,-0.7253271446611129,-0.1606686012180907,0.4499596014370253,-0.4934800267219543,-0.6790775656700134,0.5434443354606628,-11.96270751953125,-46.86020660400391,17.72463989257812,2
1596230628.169819,51,0,102960.361486125,0.7975883071265684,-2.457900842564827,0.7302471115066874,-1.407951354980469,-2.805845975875854,4.460257530212402,0.1874507367610931,-0.6357996463775635,0.6253191232681274,2,0.4520276555490472,-0.7644959307044563,-0.1884162170074064,0.4191855175190014,-0.4705925583839417,-0.667053759098053,0.5775660872459412,-9.557548522949219,-47.3818359375,17.71713256835938,2
1596230628.2,52,0,102960.391584125,0.6463560897998862,-2.415903270213851,0.6706891910718327,-0.7568009495735168,-1.582129120826721,3.053637504577637,-0.949685275554657,0.5993453860282898,-0.07046747207641602,2,0.3911259691473672,-0.8000164334845858,-0.1852978225932809,0.4155226982115656,-0.519900381565094,-0.6215260624885559,0.5860116481781006,-14.47123718261719,-46.34278106689453,16.48733520507812,2
1596230628.22986,53,0,102960.421682125,0.603490177913049,-2.431639269798339,0.6748904995289032,-0.8084056377410889,-1.545206069946289,-1.49936580657959,-0.8065460324287415,0.7775725126266479,-0.05213809013366699,2,0.3728163764736046,-0.8106016432774101,-0.1989431299516628,0.4054067741694639,-0.5089082717895508,-0.6248118281364441,0.5921341776847839,-16.51214599609375,-46.16311645507812,16.0716552734375,2
1596230628.260177,54,0,102960.451780125,0.6605793207135519,-2.527306976359638,0.7369594253613921,-0.8710657358169556,-1.883389711380005,-2.72370433807373,0.1045455634593964,0.07901722192764282,0.1558399200439453,2,0.3914033468237781,-0.8058366068823881,-0.2333115409049353,0.3781488723271391,-0.4268145859241486,-0.6720394492149353,0.6051384210586548,-13.63790893554688,-47.01460266113281,15.76803588867188,2
1596230628.290123,55,0,102960.481878125,0.7000012185271812,-2.596043937127323,0.7844986343577871,-0.4138067662715912,-0.7790523171424866,-0.2359420210123062,0.5859330892562866,-0.4918543100357056,0.1557726860046387,2,0.4018816088489511,-0.800621973041318,-0.2604529583632041,0.3600832968202661,-0.3672387003898621,-0.7064704298973083,0.6050087213516235,-9.167289733886719,-48.28296661376953,14.779296875,2
1596230628.320447,56,0,102960.511976125,0.6638750460401304,-2.589571862435904,0.7811206541142712,-0.4421843290328979,-0.2554495930671692,1.110611319541931,0.07243847846984863,-0.1198919415473938,0.03302979469299316,2,0.3880166297699057,-0.8073208529195652,-0.2641820673554422,0.3576087471823094,-0.372395932674408,-0.7040756940841675,0.6046477556228638,-9.37066650390625,-48.22648620605469,14.57180786132812,2
1596230628.35035,57,0,102960.542074125,0.635407494416473,-2.575592746171772,0.7833771982649167,-0.3272569179534912,-0.5253956913948059,-0.2191285490989685,-0.2962530255317688,0.1894087195396423,-0.2885042428970337,2,0.3785068255058124,-0.8097857930703116,-0.267596139858641,0.359683335897689,-0.3799589872360229,-0.7056763172149658,0.5980408787727356,-10.23471832275391,-48.20272064208984,13.88189697265625,2
1596230628.380658,58,0,102960.572172125,0.6536690531197542,-2.615960926185367,0.8015134493866165,-0.2673617601394653,-1.088941693305969,-0.83150714635849,0.0347495973110199,0.1429750919342041,-0.1303198337554932,2,0.3814453528219258,-0.8095417293889322,-0.2799778048196798,0.3474970460471923,-0.3490342497825623,-0.7184097170829773,0.6017167568206787,-9.863029479980469,-48.43567657470703,13.80917358398438,2
1596230628.410551,59,0,102960.602270125,0.6628174059106494,-2.64222180285197,0.8155908082077976,-0.3286435306072235,-0.1465118527412415,0.06426271051168442,0.1230745315551758,-0.152194082736969,-0.09519791603088379,2,0.3820950240230561,-0.8092411249485327,-0.2895703177832143,0.3395310753897355,-0.3282382786273956,-0.7281306982040405,0.6017355918884277,-8.284690856933594,-48.74471282958984,13.65451049804688,2
1596230628.440949,60,0,102960.632367625,0.6535349923535544,-2.640146191217218,0.8163088064277639,0.1044283732771873,-0.309315025806427,0.005097860470414162,-0.07359236478805542,0.01296216249465942,-0.2569441795349121,2,0.3786701377502377,-0.8104975702148192,-0.2910638642597606,0.3390939882713248,-0.329235315322876,-0.7286226153373718,0.6005947589874268,-8.441421508789062,-48.8572998046875,13.26675415039062,2
1596230628.470731,61,0,102960.662465625,0.6629043657560219,-2.656522238263069,0.8194873240695559,-0.04533962905406952,-0.2370057851076126,-0.3280431032180786,0.1457963585853577,0.07462894916534424,-0.2076206207275391,2,0.380211411687322,-0.8107811945430933,-0.2939818792140542,0.334137809975343,-0.3182747662067413,-0.7307959794998169,0.603853702545166,-8.168121337890625,-48.86952972412109,13.1864013671875,2
1596230628.500836,62,0,102960.692563625,0.6701077515373809,-2.669922113457135,0.8135095638406112,0.471773624420166,-0.2644761204719543,0.2186034321784973,0.2943722009658813,-0.129349410533905,-0.3707296848297119,2,0.3809330198830185,-0.8129343663130157,-0.2927267629388141,0.3291487525170889,-0.3121340870857239,-0.7267025709152222,0.6119444966316223,-7.785690307617188,-48.97277069091797,13.41326904296875,2
1596230628.531058,63,0,102960.722660625,0.6605179185986282,-2.680975851616736,0.7975756625427812,0.252665102481842,-1.095965385437012,0.5864331126213074,0.359950065612793,-0.1822863221168518,-0.2880356311798096,2,0.3748016009646419,-0.8199691600414225,-0.2893994864570028,0.3215936431576922,-0.3104589581489563,-0.7156649231910706,0.6256512999534607,-8.388374328613281,-48.90679931640625,14.216064453125,2
1596230628.561169,64,0,102960.752758625,0.6336199076121409,-2.702388721113466,0.7853066789663599,-0.04639362916350365,-1.381438970565796,0.8923760652542114,0.04375559091567993,-0.05119580030441284,0.07198286056518555,2,0.3601223002314742,-0.8308665890646111,-0.2921657183061189,0.3075908117914098,-0.3007030785083771,-0.7070420980453491,0.6400547027587891,-8.373367309570312,-48.48434448242188,14.7855224609375,2
1596230628.591131,65,0,102960.782856625,0.5971048545888233,-2.714720271604846,0.7773360807176107,-0.1795864701271057,-0.9538768529891968,0.6408417224884033,-0.4670395851135254,0.01165628433227539,0.141661524772644,2,0.3427415086060018,-0.8407970865205352,-0.2963168297508658,0.2962851746546877,-0.2951112687587738,-0.701383113861084,0.6488229632377625,-9.265647888183594,-48.52837371826172,14.93377685546875,2
1596230628.621424,66,0,102960.812954625,0.5897434827508204,-2.723825134505155,0.7800921279254669,-0.05754964053630829,0.0842321366071701,-0.3449772298336029,-0.4142506718635559,0.1242709159851074,0.02560067176818848,2,0.3383912764091033,-0.8428216877827952,-0.3001732894530342,0.2916147786244332,-0.2884064614772797,-0.7033448815345764,0.6497141122817993,-9.435104370117188,-48.54184722900391,14.96478271484375,2
1596230628.651231,67,0,102960.843052625,0.6067083388347013,-2.722450579108937,0.7818634167386666,0.345802515745163,0.6464822888374329,-0.3606317639350891,-0.03902798891067505,-0.04884660243988037,-0.1402921676635742,2,0.3457968162739565,-0.8393530073411803,-0.2982368366888073,0.2948999881817777,-0.288791686296463,-0.7046028971672058,0.6481778025627136,-9.090927124023438,-48.46560668945312,14.82754516601562,2
1596230628.681456,68,0,102960.873150625,0.6248689836735144,-2.721281291338617,0.7737109358313375,0.3481808602809906,0.5085551142692566,-0.2542320489883423,0.2631785571575165,-0.1403821706771851,0.01956689357757568,2,0.3532926266068501,-0.8376846624311454,-0.2917307130077909,0.297257650145239,-0.2918837368488312,-0.6987945437431335,0.6530625224113464,-9.126998901367188,-48.29970550537109,15.08328247070312,2
1596230628.711445,69,0,102960.903248625,0.6266277789683343,-2.71355061794823,0.7688475777493285,0.1244201809167862,0.04634447395801544,0.1645506769418716,0.2059780359268188,-0.1563830971717834,0.05095803737640381,2,0.3549733611915033,-0.8372152581862864,-0.2879441742424308,0.3002548236880789,-0.2983308136463165,-0.6953074336051941,0.6538709402084351,-9.066780090332031,-48.37831878662109,15.150146484375,2
1596230628.741743,70,0,102960.933346625,0.6263535231801077,-2.704472437168608,0.7624789061775443,0.3177531063556671,0.6428253650665283,0.04018839448690414,0.1846559047698975,-0.06354868412017822,0.05793237686157227,2,0.3559105548808352,-0.8371944588994548,-0.2835489656129285,0.3033695944055459,-0.3061225414276123,-0.6907161474227905,0.6551337838172913,-9.216270446777344,-48.19994354248047,15.77932739257812,2
1596230628.771665,71,0,102960.963444625,0.6233035436457225,-2.672472694194156,0.7488268800556211,0.4156409800052643,1.389484047889709,0.4598321616649628,-0.1517201662063599,0.05627739429473877,0.09527277946472168,2,0.3584794208900125,-0.8355657196956401,-0.2722480119657437,0.3149660860692652,-0.3311591148376465,-0.6807799339294434,0.6533551216125488,-9.604888916015625,-47.77685546875,15.89254760742188,2
1596230628.802044,72,0,102960.993542625,0.6253840916085377,-2.62171332657543,0.7291943107496522,0.900658130645752,1.97819972038269,-0.2092889100313187,-0.5011419653892517,0.1793854236602783,0.09239959716796875,2,0.3649485516288108,-0.8309069345355298,-0.2540159646564177,0.334487951106615,-0.3704512119293213,-0.666269063949585,0.6471875309944153,-10.95933532714844,-47.68401336669922,16.35531616210938,2
1596230628.831848,73,0,102961.023640625,0.6747489221711075,-2.587033335952105,0.7182574766504197,0.7631233334541321,2.634862422943115,-1.344260931015015,-0.1708150207996368,0.04206478595733643,0.3831273317337036,2,0.3888413562267138,-0.8178372606802728,-0.2341479161234089,0.3537224725274236,-0.3964820504188538,-0.6580736041069031,0.6401107907295227,-10.96737670898438,-47.47248077392578,16.88156127929688,2
1596230628.862181,74,0,102961.053738625,0.7233202403235593,-2.533577559525141,0.7229414218279364,0.4710685610771179,2.909460544586182,-0.6982580423355103,0.08376544713973999,-0.09738808870315552,0.2927279472351074,2,0.4148015124550344,-0.7972938508638672,-0.2165327143396809,0.3812821087623513,-0.4283515810966492,-0.6615931987762451,0.6154755353927612,-11.06985473632812,-47.23358917236328,17.2630615234375,2
1596230628.892438,75,0,102961.083835625,0.7504735590131978,-2.464651282339172,0.7224865891620792,0.3196836113929749,2.858450651168823,-0.589079737663269,-0.1442471146583557,0.134291410446167,0.1579217910766602,2,0.4325787759668835,-0.7779776594317148,-0.1963502324512643,0.4111850773968412,-0.4699117243289948,-0.6612520813941956,0.5847472548484802,-11.18691253662109,-47.1324462890625,17.0760498046875,2
1596230628.922415,76,0,102961.113933625,0.7827846056941632,-2.394620095642708,0.7324907020207211,0.316098541021347,3.459479570388794,-1.079106211662292,-0.4168382883071899,0.2650800943374634,0.1988444328308105,2,0.4524026306645929,-0.7537290143078452,-0.1782548174690359,0.4420972482627404,-0.5051571726799011,-0.6687235832214355,0.5455511212348938,-11.82854461669922,-47.07521057128906,16.6961669921875,2
1596230628.952237,77,0,102961.144031625,0.832134585134921,-2.303433094890798,0.747598158098379,0.759661853313446,5.039928436279297,-1.296037197113037,-0.3660157918930054,0.3023132085800171,0.359277606010437,2,0.4796095409331719,-0.7177813351799277,-0.1519918406463036,0.4813140091691421,-0.5451629757881165,-0.679879367351532,0.4904707074165344,-11.95137786865234,-47.22940063476562,16.31842041015625,2
1596230628.98246,78,0,102961.174129625,0.9028546966019946,-2.169456643258128,0.7599400404981201,1.479364633560181,6.876817226409912,-1.468973398208618,0.01982212066650391,0.2413210272789001,0.5771561861038208,2,0.5141179106263608,-0.6632722952838935,-0.1058237481350094,0.5334360572613509,-0.5988149642944336,-0.6888779997825623,0.4084947407245636,-12.89983367919922,-47.31544494628906,15.9429931640625,2
1596230629.012452,79,0,102961.204227625,0.9884675530605033,-2.004108574412072,0.7741100581239169,1.437095761299133,8.028711318969727,-1.32048237323761,0.4897050261497498,0.05218440294265747,0.7618978023529053,2,0.5490805869100306,-0.5904460683494404,-0.04340604757230215,0.5899153606314517,-0.6489595770835876,-0.6990799903869629,0.3002321124076843,-13.63699340820312,-47.16779327392578,15.644287109375,2
1596230629.043082,80,0,102961.234325625,1.068398667761376,-1.812086208932324,0.7867155947797657,2.120556116104126,8.152355194091797,-0.6467458009719849,0.7016027569770813,0.03283774852752686,0.4902472496032715,2,0.5736301758347586,-0.5052925237729875,0.03044459000365352,0.6439729031917827,-0.6857172846794128,-0.7080377340316772,0.168744221329689,-16.22541809082031,-47.02333068847656,14.72039794921875,2
1596230629.072745,81,0,102961.264423625,1.179628509159782,-1.652312038624211,0.7909955189075151,2.771194458007812,7.881134033203125,-0.6290739774703979,0.5715702772140503,0.07935184240341187,0.6072009801864624,2,0.5944083523581549,-0.418694850042017,0.1124127364115273,0.6773011146763837,-0.7008031010627747,-0.7110536098480225,0.05725333467125893,-17.78121185302734,-46.50246429443359,14.21807861328125,2
1596230629.102932,82,0,102961.294521625,1.30094645637024,-1.496283326205964,0.8123777318986457,3.018205165863037,7.933260440826416,-0.6972764730453491,0.4485949873924255,-0.08556640148162842,0.3671028614044189,2,0.6088936639184115,-0.3219443087231937,0.1938368392719355,0.698589879224913,-0.685866117477417,-0.725924551486969,-0.0512007363140583,-20.82857513427734,-45.51447296142578,13.72286987304688,2
1596230629.132843,83,0,102961.324619625,1.45002054003893,-1.387990359016183,0.8509251749310685,3.776924848556519,6.896170616149902,-1.087113380432129,0.2441509366035461,0.06557214260101318,0.3985615372657776,2,0.6238177556256784,-0.2256669728361613,0.2667116581374419,0.6991358458009058,-0.6483026742935181,-0.7518906593322754,-0.1198516488075256,-22.38262939453125,-45.10404205322266,13.41644287109375,2
1596230629.163106,84,0,102961.354717625,1.605504724428254,-1.294344954636593,0.9157139918252897,3.711296558380127,7.05963134765625,-1.599480867385864,0.1947613954544067,0.03065824508666992,0.4021720886230469,2,0.6339979446145189,-0.1220845530677586,0.3295710735285988,0.6888577890174079,-0.5860925316810608,-0.7929977774620056,-0.1662839353084564,-24.37744903564453,-43.88365173339844,14.11428833007812,2
1596230629.193048,85,0,102961.384815625,1.753886350795829,-1.198902428025498,1.004607740565223,3.379114151000977,6.826701641082764,-1.925394415855408,0.4541918635368347,-0.2246512174606323,0.2789670825004578,2,0.6343695013922322,-0.01063782786015233,0.3826329263317521,0.6716057287228905,-0.499750167131424,-0.8439516425132751,-0.1949243396520615,-25.07128143310547,-43.63938140869141,13.96124267578125,2
1596230629.223419,86,0,102961.414913625,1.883218757027877,-1.150608464439023,1.080954703327695,2.695924997329712,4.084107875823975,-1.148506760597229,0.7556450366973877,-0.3098603487014771,-0.02262532711029053,2,0.6312585284561616,0.07449477382702396,0.4169149975716475,0.649726989628282,-0.4295597672462463,-0.8824073672294617,-0.1919264048337936,-25.51441955566406,-43.48341369628906,13.73056030273438,2
1596230629.253327,87,0,102961.445010625,2.001227260099162,-1.147091110060247,1.141666504828087,2.304009914398193,2.643083333969116,-1.069926142692566,0.7015255689620972,0.03140902519226074,-0.1395795941352844,2,0.6293453483213409,0.1356121425741589,0.4367285199762385,0.628332900831208,-0.3792869746685028,-0.9093281626701355,-0.1710675656795502,-25.24897766113281,-43.16349792480469,14.43359375,2
1596230629.283499,88,0,102961.475108625,2.101366727201396,-1.193573314449385,1.185589400114868,1.347434639930725,0.9329942464828491,-0.5396742820739746,0.004108220338821411,-0.2215902805328369,-0.04646915197372437,2,0.6341255143127298,0.1693595346392631,0.4392661918845112,0.6133902881898501,-0.3493328094482422,-0.9267206788063049,-0.1384043544530869,-25.01023101806641,-43.12847137451172,15.3162841796875,2
1596230629.313545,89,0,102961.505206625,2.170970518571072,-1.221741255137453,1.21031721982678,1.07587468624115,1.699478626251221,-0.6077074408531189,-0.2317903935909271,0.3085062503814697,-0.2376086711883545,2,0.6346350951289084,0.1921482301126479,0.4436719316233256,0.6028869127151215,-0.3314522504806519,-0.9357279539108276,-0.1206347048282623,-25.27151489257812,-42.94499969482422,16.2877197265625,2
1596230629.343793,90,0,102961.535304625,2.259220558591416,-1.239894106580219,1.256460864318993,1.545096278190613,2.191278457641602,-1.668143391609192,-0.216250866651535,0.3800199031829834,-0.3758798837661743,2,0.62931161790685,0.2318196930541052,0.4496473268258823,0.589952435268824,-0.2924113869667053,-0.9510020613670349,-0.1004530340433121,-25.00797271728516,-42.81370544433594,16.33035278320312,2
1596230629.373669,91,0,102961.565402625,2.326817945128298,-1.258708161810472,1.317640425786525,0.7874416708946228,0.4309542775154114,-1.32746148109436,0.4160021245479584,-0.6301479935646057,-0.383928656578064,2,0.6234245401398701,0.2699820486300293,0.4441327281599929,0.5841212857728755,-0.2383619546890259,-0.9681268334388733,-0.0769030749797821,-23.28752899169922,-43.30717468261719,16.98321533203125,2
1596230629.403901,92,0,102961.595500625,2.340256538821879,-1.292309560781094,1.329977502961125,-0.004547540098428726,-1.319939613342285,0.5138148069381714,0.6826891303062439,-0.1577301025390625,-0.2426068782806396,2,0.6284490579251467,0.268830995040433,0.4336115917116697,0.5871649675034736,-0.2293093055486679,-0.9711430072784424,-0.06556335836648941,-22.61540222167969,-43.48585510253906,17.601318359375,2
1596230629.433981,93,0,102961.62559825,2.38356928259832,-1.382007576709624,1.312608824324142,0.3432662785053253,-1.715005278587341,0.3975150883197784,0.04228106141090393,0.2196668386459351,0.05961990356445312,2,0.6430603836743799,0.250029184748364,0.4233002204147908,0.5871762197781432,-0.2507928311824799,-0.9668543338775635,-0.04791750013828278,-22.35469055175781,-43.15789031982422,18.79849243164062,2
1596230629.464173,94,0,102961.65569625,2.443069067161145,-1.474529865308553,1.317798608647152,0.665482759475708,-0.3087877929210663,-0.3628444373607635,-0.1291698813438416,-0.1558796763420105,0.3031806945800781,2,0.6545516638637969,0.2439930268199371,0.4091504182853127,0.5870481785271952,-0.2491488456726074,-0.9681664109230042,-0.02405904419720173,-22.0396728515625,-42.77296447753906,19.69845581054688,2
1596230629.494055,95,0,102961.68579425,2.500800013350995,-1.53007215438133,1.321163084117261,0.399727076292038,-0.2570151388645172,0.168363630771637,-0.01178508996963501,-0.01806867122650146,0.08763301372528076,2,0.6584385500805428,0.2478499983146226,0.4067910485287324,0.5827094816055552,-0.2468447238206863,-0.9690030813217163,-0.01005810778588057,-21.31614685058594,-42.55886840820312,20.77328491210938,2
1596230629.524403,96,0,102961.71589225,2.541536300064279,-1.592632407794967,1.320107055308561,0.1079393029212952,-0.7371399998664856,-0.09546338021755219,0.2686044275760651,0.03714752197265625,0.326249361038208,2,0.6661603506421662,0.2427728000979366,0.3982433983316994,0.5819742442282605,-0.2480128854513168,-0.9687416553497314,0.005416490603238344,-21.15444946289062,-42.28189086914062,21.3409423828125,2
1596230629.554304,97,0,102961.74599025,2.56124023371584,-1.622628803359751,1.316271262786919,0.1742265224456787,-0.05431267619132996,0.4004420638084412,-0.1731644868850708,-0.2797269821166992,-0.01317894458770752,2,0.670237512334741,0.2393827817303461,0.3950473977078329,0.5808746024246729,-0.2514484226703644,-0.9677829742431641,0.0130448779091239,-20.77620697021484,-42.46989440917969,22.14077758789062,2
1596230629.584429,98,0,102961.77608825,2.568394290411091,-1.634971678995246,1.306537100476839,0.09492505341768265,-0.09093624353408813,-0.03039487078785896,-0.4163471162319183,0.1761163473129272,-0.01144266128540039,2,0.6731453125539441,0.2350548417570944,0.39572676326621,0.5788135589681656,-0.2606573700904846,-0.9652862548828125,0.01675078086555004,-20.87662506103516,-42.01352691650391,22.1888427734375,2
1596230629.614472,99,0,102961.80618625,2.597770022717004,-1.654164619650492,1.320434388894838,0.2659180462360382,0.7483952641487122,-0.7444062829017639,-0.1065679788589478,0.1344287395477295,0.1895492076873779,2,0.6714613062059965,0.2438343833387447,0.3938860970232504,0.578392871677098,-0.2468944042921066,-0.9688228368759155,0.0206309836357832,-20.67787933349609,-42.06096649169922,22.413330078125,2
1596230629.644664,100,0,102961.83628325,2.633439855674863,-1.659097201824335,1.335018073082744,0.1785362064838409,1.081935882568359,-0.1744328886270523,0.09499070048332214,-0.1472762823104858,0.07401037216186523,2,0.6657676341674212,0.2589470950638201,0.3984910745494032,0.5752432112057096,-0.2326897978782654,-0.9723328351974487,0.02060028165578842,-20.71932983398438,-42.07724761962891,22.12420654296875,2
1596230629.67464,101,0,102961.86638125,2.649662397102662,-1.651805222699878,1.33649158836742,0.0552104152739048,0.4814209640026093,-0.06742457300424576,0.2115024924278259,0.06568729877471924,0.04436969757080078,2,0.6619412834777345,0.2668843787452893,0.4051575703556256,0.5713615081974931,-0.2314061224460602,-0.9726759791374207,0.0187870692461729,-21.00531768798828,-42.18822479248047,21.81134033203125,2
1596230629.704834,102,0,102961.89647925,2.63954978363236,-1.634680937375687,1.337904664481954,-0.2107132375240326,0.1001879572868347,0.02608328871428967,0.07553109526634216,0.05939662456512451,0.3133249282836914,2,0.659598564108745,0.2688805979887928,0.4075370523035826,0.5714426315664476,-0.2303220331668854,-0.973003089427948,0.01473408378660679,-21.30558776855469,-42.11527252197266,21.68185424804688,2
1596230629.734857,103,0,102961.92657725,2.599832528278732,-1.591014228555234,1.336496113421525,-0.4153335690498352,0.1767829805612564,0.1147267892956734,-0.09534952044487,0.0734245777130127,0.1382459402084351,2,0.6561985492318224,0.267862336395157,0.4109289062167282,0.5734028905305051,-0.2321158349514008,-0.9726770520210266,0.004693534690886736,-21.24119567871094,-42.15067291259766,21.46286010742188,2
1596230629.765334,104,0,102961.95667525,2.563208951610536,-1.547016652762577,1.335930021878774,-0.06447388231754303,0.3389205634593964,-0.1901077032089233,-0.02739745378494263,0.121432900428772,-0.1721881628036499,2,0.6520986626520081,0.2683294136377556,0.4149676934373809,0.5749508700390582,-0.2326472997665405,-0.9725454449653625,-0.005533319897949696,-21.68946075439453,-42.47159576416016,20.81610107421875,2
1596230629.795079,105,0,102961.98677325,2.555472708708272,-1.53290606461668,1.342996595583095,-0.1217091307044029,0.09565336257219315,-0.1023019328713417,0.4262874126434326,-0.3434772491455078,0.01553642749786377,2,0.649323534799519,0.2722158926447725,0.4152708757125546,0.5760448722766522,-0.2256731688976288,-0.974165678024292,-0.008554910309612751,-21.52616882324219,-42.63304901123047,20.80661010742188,2
1596230629.825285,106,0,102962.01687125,2.501976330247185,-1.486497093732551,1.330612622671175,-0.6800256967544556,-0.6885619759559631,0.9281457662582397,0.2683430016040802,0.1750812530517578,0.2075270414352417,2,0.6482607933965743,0.2640893391852689,0.4185538820303103,0.5786429342280408,-0.2370372861623764,-0.9712942838668823,-0.02002952992916107,-21.80028533935547,-42.66725158691406,20.13735961914062,2
1596230629.855251,107,0,102962.04696925,2.451555448356479,-1.462515427127469,1.302923198936078,-0.3174077570438385,-0.7156018614768982,0.3560271561145782,-0.3050743937492371,0.2499521970748901,-0.03100413084030151,2,0.6523892200707981,0.2451250938555536,0.4200625340310735,0.5812483255851469,-0.2631314396858215,-0.9643360376358032,-0.02860398776829243,-22.32025909423828,-42.42408752441406,20.05133056640625,2
1596230629.90778,108,0,102962.07706725,2.400982851791027,-1.429205320138052,1.307339845167322,-0.6459270119667053,-0.2531294226646423,-0.3203957080841064,-0.2698001861572266,-0.2136551141738892,0.1260420083999634,2,0.6511985967670162,0.2399278518220274,0.4147804392312958,0.5885000805642221,-0.2578137516975403,-0.9654955863952637,-0.03675002604722977,-22.13863372802734,-42.92626190185547,19.64892578125,2
1596230629.915441,109,0,102962.10716525,2.346622779045211,-1.371249188423833,1.302383391384058,-0.3768825232982635,0.3152731359004974,0.4022740125656128,0.07494524121284485,-0.02591913938522339,-0.00571829080581665,2,0.6459408122401502,0.2376458323106312,0.4190727249057843,0.5921682102536219,-0.2599397301673889,-0.9641929864883423,-0.05256985127925873,-21.98369598388672,-43.12203216552734,19.30307006835938,2
1596230629.967157,110,0,102962.13726325,2.299250947040469,-1.326544785697314,1.289772825062088,-0.4921410977840424,-0.1323968172073364,0.07159749418497086,-0.05182379484176636,0.1358963847160339,-0.0278857946395874,2,0.6426940389667483,0.2311056467337804,0.4233902943082038,0.5952103664689514,-0.2691078782081604,-0.9607720971107483,-0.06706910580396652,-22.49427032470703,-43.06217193603516,18.42669677734375,2
1596230629.975765,111,0,102962.16736125,2.257663057552519,-1.288293260911775,1.286757809934389,-0.4404117166996002,-0.07360856980085373,0.1378688216209412,-0.01887622475624084,-0.01952743530273438,0.01532787084579468,2,0.6394623449459387,0.2280979829367565,0.4241921120382118,0.5992665658701295,-0.2691267728805542,-0.9599315524101257,-0.07811843603849411,-22.51222229003906,-43.33392333984375,18.12734985351562,2
1596230630.027849,112,0,102962.19745925,2.219747120877414,-1.252399830116475,1.27428389900832,-0.4319324791431427,0.1584755331277847,0.2729736566543579,-0.09177732467651367,0.06317257881164551,-0.008127808570861816,2,0.6363138714586662,0.2221957376504079,0.4282481075390735,0.6019446936525428,-0.2775013446807861,-0.9563613533973694,-0.09146742522716522,-22.80690765380859,-43.43552398681641,17.43484497070312,2
1596230630.035815,113,0,102962.22755625,2.182848213610594,-1.212014661757874,1.267078536314721,-0.4309981167316437,0.1136396005749702,-0.07254236936569214,-0.1775045990943909,0.01380288600921631,-0.1282466053962708,2,0.6317343390035498,0.2200112308235635,0.4322346363502304,0.6047148391902133,-0.2800268232822418,-0.9542312026023865,-0.1050135642290115,-23.17355346679688,-43.50250244140625,16.9637451171875,2
1596230630.084673,114,0,102962.25765425,2.141066614159985,-1.167250400296891,1.266400613359975,-0.3603115677833557,0.2227572649717331,-0.07687300443649292,0.1746792495250702,-0.09503042697906494,-0.04117405414581299,2,0.6266319501276555,0.220194533431016,0.4338606377858844,0.6087790129082002,-0.2756422460079193,-0.9540282487869263,-0.1176935359835625,-23.34884643554688,-43.55046081542969,16.06912231445312,2
1596230630.096059,115,0,102962.28775225,2.112542816536316,-1.131626575955046,1.256029476156562,-0.4017879366874695,0.2679361402988434,0.4015197157859802,0.1177158355712891,0.03445756435394287,0.02039849758148193,2,0.6217236387430691,0.2182697352442099,0.439634424061972,0.6103602634683265,-0.2802158892154694,-0.9508686065673828,-0.1316360831260681,-23.45803833007812,-43.88748931884766,16.02993774414062,2
1596230630.143743,116,0,102962.31785025,2.092395691817061,-1.111270256647649,1.245084796315923,-0.4158928990364075,-0.1142841503024101,-0.04512846097350121,-0.11536705493927,0.03581738471984863,0.06152397394180298,2,0.6190210572290716,0.2141329147739049,0.4433188137793171,0.611905669629534,-0.2867890596389771,-0.9474232792854309,-0.1419200450181961,-23.72976684570312,-43.78649139404297,15.30181884765625,2
1596230630.15614,117,0,102962.34794825,2.04273718061175,-1.064514644998204,1.246139329889355,-0.3952745199203491,0.122937947511673,-0.5426527857780457,0.004207909107208252,0.0279344916343689,-0.0340421199798584,2,0.6140309469239192,0.213597133629033,0.4421239823450179,0.6179553064018045,-0.2789686620235443,-0.9477602243423462,-0.1546845287084579,-23.52162933349609,-43.85234069824219,14.4561767578125,2
1596230630.208294,118,0,102962.37804625,2.007239102991772,-1.029067253389736,1.242570244430596,-0.2951394021511078,0.1775170266628265,0.1538946330547333,-0.05896973609924316,0.04383355379104614,-0.02374029159545898,2,0.6097415892879305,0.2123833329490642,0.4431138784252818,0.6218992512127328,-0.2762078642845154,-0.9466156959533691,-0.166217029094696,-23.19941711425781,-44.39555358886719,14.07064819335938,2
1596230630.216648,119,0,102962.40814425,1.995875520300134,-1.010675973010037,1.235891144167267,-0.2556816637516022,0.2820294201374054,-0.03221714496612549,-0.02617454528808594,0.0226169228553772,0.02736902236938477,2,0.6063700161153449,0.2121403087695954,0.4473120639008805,0.622273215738928,-0.2784547805786133,-0.9444414973258972,-0.1746237874031067,-23.3544921875,-44.38591003417969,13.53448486328125,2
1596230630.269262,120,0,102962.43824225,1.962778329154795,-0.9736138427803465,1.232128832796338,-0.4280754327774048,0.0570482425391674,-0.08897098898887634,0.001314312219619751,0.001016616821289062,0.008251667022705078,2,0.6012654824328024,0.2122985079455096,0.4493766675143088,0.6256755392827671,-0.2747294008731842,-0.9431982040405273,-0.1868183314800262,-23.62682342529297,-44.52700805664062,13.13290405273438,2
1596230630.276694,121,0,102962.46834025,1.93183790172966,-0.9462619760232256,1.22833035770989,-0.2606890499591827,-0.04456283897161484,-0.08971228450536728,0.0123419463634491,0.05283117294311523,-0.05912244319915771,2,0.5980344688005585,0.2101835803844042,0.4490737233455688,0.6296907822959424,-0.272421807050705,-0.9419294595718384,-0.1963552683591843,-23.50196075439453,-44.49244689941406,12.43817138671875,2
1596230630.327932,122,0,102962.49843825,1.93172630332954,-0.9409754861715622,1.226932477786801,0.1195432990789413,0.337056577205658,0.1771517097949982,-0.1008861064910889,-0.01057314872741699,-0.02523207664489746,2,0.5967176113439376,0.2112909992383941,0.4510605226067087,0.6291493801042167,-0.2724443078041077,-0.941459059715271,-0.1985684186220169,-23.38980865478516,-44.69898223876953,12.25747680664062,2
1596230630.336769,123,0,102962.52853625,1.927882117827223,-0.9240069339277357,1.223790850024437,-0.2564475238323212,0.4656712114810944,-0.1750785559415817,-0.120245635509491,0.06406283378601074,0.01330417394638062,2,0.5929592951739281,0.2143068957547312,0.4558909980519554,0.628200073666095,-0.2713944017887115,-0.9403952956199646,-0.2049436569213867,-23.90935516357422,-44.45510864257812,11.85940551757812,2
1596230630.3854,124,0,102962.55863425,1.907998211696072,-0.8892762597101711,1.226237957306028,-0.06961465626955032,0.5443697571754456,-0.1091830655932426,0.08899182081222534,-0.004051029682159424,-0.05716836452484131,2,0.5874393350880966,0.2202685107360012,0.4591211067609655,0.6289712228943301,-0.2623264789581299,-0.9412246942520142,-0.2127936184406281,-23.7943115234375,-44.71773529052734,11.3935546875,2
1596230630.396973,125,0,102962.58873125,1.896052857554281,-0.8670948793844379,1.224818768328117,-0.1414677202701569,0.1686055064201355,-0.06504113972187042,0.02713000774383545,0.04210835695266724,-0.0007956027984619141,2,0.5834901028714645,0.2232206142345737,0.462300844370809,0.6292773737560219,-0.2585605680942535,-0.9407444000244141,-0.2194237112998962,-23.93572998046875,-44.77751159667969,11.10873413085938,2
1596230630.447673,126,0,102962.618830125,1.894046689243547,-0.8645816402428848,1.22968579098271,0.1622076332569122,-0.09533426910638809,-0.2589064836502075,-0.04407230019569397,0.02137017250061035,-0.01928079128265381,2,0.5837118010746857,0.2252356508408993,0.4608828658619692,0.6293938455933856,-0.2545216679573059,-0.9423837065696716,-0.2170988768339157,-23.76602172851562,-44.94242858886719,11.05581665039062,2
1596230630.457223,127,0,102962.648928125,1.874917769574751,-0.8514289076559752,1.2299673315691,-0.1355521827936172,-0.3048742711544037,-0.02033396624028683,0.1313364803791046,-0.0359073281288147,-0.1214607954025269,2,0.5828704050021214,0.2239098878750816,0.4585972220460034,0.6323094901925157,-0.2514448165893555,-0.9424778819084167,-0.2202529013156891,-23.43894195556641,-45.20001983642578,10.91119384765625,2
1596230630.50738,128,0,102962.679026125,1.865184029556053,-0.8412828013482536,1.229814401087008,-0.1650941967964172,0.3776576817035675,-0.04155561327934265,-0.1292712986469269,0.01857596635818481,0.04882848262786865,2,0.5816154285098158,0.2242302968550307,0.4585183899796489,0.6334076487884928,-0.2493043690919876,-0.9424267411231995,-0.2228885293006897,-23.35498809814453,-45.04341125488281,11.07186889648438,2
1596230630.517388,129,0,102962.709124125,1.861605346930112,-0.8119712533552602,1.225071386804462,-0.1336816698312759,1.152019023895264,0.1810659617185593,-0.01368251442909241,-0.01116478443145752,0.06523466110229492,2,0.5746190971462438,0.2307092564353306,0.4673284191026824,0.6310232747950727,-0.2459058463573456,-0.9408300518989563,-0.2331722676753998,-23.53148651123047,-44.96072387695312,10.27081298828125,2
1596230630.565966,130,0,102962.739222125,1.861228247864202,-0.7820183140325154,1.217864512936799,-0.1615421772003174,0.7413445115089417,0.1242366209626198,-0.06382626295089722,0.01291579008102417,-0.04875671863555908,2,0.5666026000375506,0.2373672697485095,0.47796737012723,0.627826050518668,-0.2435843944549561,-0.9383633732795715,-0.2452365458011627,-23.80635833740234,-45.28733062744141,9.64825439453125,2
1596230630.577633,131,0,102962.769320125,1.864666131277517,-0.7686553246118218,1.214381465731682,0.06152613088488579,0.32726189494133,0.1291531026363373,0.08691093325614929,0.02350020408630371,-0.1266260743141174,2,0.5624901961847841,0.2412383714112032,0.4838782520909735,0.625516462496664,-0.2425563931465149,-0.9371537566184998,-0.2508176565170288,-24.40876770019531,-45.02455902099609,8.717071533203125,2
1596230630.626254,132,0,102962.799418125,1.887431026601889,-0.7826122534511882,1.213065172008389,0.2010221779346466,0.2773205637931824,0.3027913868427277,0.05562648177146912,0.01831907033920288,-0.006317257881164551,2,0.5629431625335634,0.2428041473755873,0.4874506861153761,0.6217178038476272,-0.246902734041214,-0.9366936683654785,-0.2482822835445404,-24.75090026855469,-44.85478210449219,8.998260498046875,2
1596230630.638175,133,0,102962.829516125,1.91762196485434,-0.7876408365450103,1.209690739339757,0.1040643379092216,1.131845593452454,0.3253687620162964,-0.02267473936080933,-0.03352820873260498,0.1359003186225891,2,0.5600270335236093,0.2484685903657344,0.4964041399519786,0.614992729596201,-0.2503867149353027,-0.9355067610740662,-0.2492661625146866,-25.06052398681641,-44.84480285644531,8.83917236328125,2
1596230630.688032,134,0,102962.859614125,1.936848983500121,-0.7824204682339689,1.204136771845878,-0.05317214131355286,0.4062298834323883,0.2219720184803009,-0.05503204464912415,0.05589866638183594,-0.02652692794799805,2,0.5555970143018396,0.2533503285381712,0.5054416822429335,0.609634724610578,-0.2527414560317993,-0.9335300922393799,-0.2542511522769928,-25.85023498535156,-44.32242584228516,8.15179443359375,2
1596230630.697956,135,0,102962.889712125,1.937483181300642,-0.7822380296173059,1.19952727198326,-0.1214083954691887,-0.3262933194637299,0.02197882533073425,0.12117999792099,0.0251305103302002,-0.001294493675231934,2,0.5548846773133543,0.2518524531157258,0.5070888329678513,0.6095361610838634,-0.2557252943515778,-0.9318676590919495,-0.2573466598987579,-25.857666015625,-44.42692565917969,7.919586181640625,2
1596230630.746587,136,0,102962.919810125,1.930667390599961,-0.7945867646518185,1.19653780534415,-0.1600143611431122,-0.9242427349090576,0.03825095668435097,0.1415779888629913,-0.01587492227554321,-0.05313622951507568,2,0.558467473331874,0.245059490130175,0.5024785966583523,0.6128420047797711,-0.2608703970909119,-0.9307789206504822,-0.2561198472976685,-26.14970397949219,-44.58815002441406,8.20697021484375,2
1596230630.758167,137,0,102962.949908125,1.920738721911227,-0.8151826388414589,1.19281944577889,-0.1357449740171432,-0.8884292840957642,-0.08897832781076431,-0.06719350814819336,0.05743223428726196,-0.01236426830291748,2,0.5643211604114897,0.234540756797341,0.4947760427506808,0.6178422011139056,-0.2686068117618561,-0.9294131398200989,-0.2530645132064819,-26.14772033691406,-44.52527618408203,8.481170654296875,2
1596230630.805029,138,0,102962.980005125,1.907885365554621,-0.8199920827717428,1.196564460023965,0.02774927578866482,-0.2335441112518311,-0.2758647501468658,-0.1036397218704224,0.0585518479347229,0.03573322296142578,2,0.5674743539346863,0.2308162926628476,0.488288242998938,0.6215073197418099,-0.2672740817070007,-0.9307886958122253,-0.2493933886289597,-25.54912567138672,-44.64974975585938,9.20928955078125,2
1596230630.818316,139,0,102963.010103125,1.892739989643935,-0.8114226329730875,1.202133167774813,-0.03638865053653717,-0.2438773661851883,-0.2317546755075455,-0.06760814785957336,-0.008536994457244873,0.02836704254150391,2,0.5678603097993239,0.2312649527981628,0.4843005996680286,0.6241028046975639,-0.2613639533519745,-0.9328099489212036,-0.2481023818254471,-25.41790771484375,-44.76073455810547,9.05902099609375,2
1596230630.865723,140,0,102963.040201125,1.878151692055314,-0.8033575637718998,1.206469759008322,-0.01320373080670834,-0.04841186478734016,-0.209250345826149,-0.01081597805023193,0.01227957010269165,0.03321564197540283,2,0.5681766678092046,0.2312567418681429,0.4807033375511146,0.6265939764240489,-0.256440669298172,-0.9343639016151428,-0.2473911941051483,-24.83096313476562,-44.94183349609375,9.23828125,2
1596230630.878647,141,0,102963.070299125,1.870317807605737,-0.7942204160241607,1.209934151615891,0.04060438647866249,0.07310664653778076,-0.1045969501137733,0.0230376124382019,0.001241922378540039,0.0113523006439209,2,0.5673615877742918,0.2331820907981429,0.4797827312048956,0.6273241688584632,-0.2518590688705444,-0.9355927705764771,-0.2474538832902908,-24.49047088623047,-44.9674072265625,9.081939697265625,2
1596230630.928042,142,0,102963.100397125,1.865153411113926,-0.7910672803107071,1.212092793705343,-0.02856866642832756,-0.1671285629272461,-0.06088268756866455,-0.02918374538421631,-0.01751917600631714,-0.004313826560974121,2,0.5675050534874946,0.2335057719881677,0.4783970155966719,0.628131692949864,-0.2496407032012939,-0.9363527297973633,-0.2468261420726776,-24.26553344726562,-45.20433044433594,9.100372314453125,2
1596230630.938745,143,0,102963.130495125,1.862849374306768,-0.7903411605940683,1.212116350069197,-0.01378856226801872,0.1351315975189209,0.002969244029372931,-0.01277968287467957,0.00665891170501709,0.02559387683868408,2,0.5676034500212178,0.2330886773314534,0.4778720734551986,0.6285972004314858,-0.2494459003210068,-0.9363610148429871,-0.2469919770956039,-24.176025390625,-45.06147003173828,9.13348388671875,2
1596230630.983664,144,0,102963.160593125,1.861651830960825,-0.781048945635731,1.212856932303653,0.01187229342758656,0.2766116559505463,-0.0511290468275547,-0.05920636653900146,0.03046649694442749,0.0001201629638671875,2,0.5656219093143501,0.2359417482060251,0.4799025846480421,0.6277714964375549,-0.246651828289032,-0.9366207122802734,-0.2488067001104355,-24.2764892578125,-45.08158111572266,9.0745849609375,2
1596230630.999226,145,0,102963.190691125,1.860575111350832,-0.7734079587534477,1.214034817778403,0.02329239994287491,0.24138543009758,-0.02435503900051117,-0.02560639381408691,0.02804648876190186,-0.01098477840423584,2,0.5640788358972811,0.2384699871784465,0.4813639575133678,0.6270852514592598,-0.2439724206924438,-0.9370327591896057,-0.2498942613601685,-24.23682403564453,-45.07096099853516,8.844146728515625,2
1596230631.047253,146,0,102963.220789125,1.866068710801663,-0.7750515700566695,1.216050983564602,0.07741027325391769,-0.002123007783666253,-0.0136548662558198,-0.009807169437408447,-0.01851367950439453,-0.03689920902252197,2,0.564100007838204,0.2402491746537019,0.4820072635574051,0.6258919255003679,-0.2430605590343475,-0.9377349615097046,-0.2481430321931839,-24.31568145751953,-45.14207458496094,9.011993408203125,2
1596230631.059299,147,0,102963.250887125,1.86873732696806,-0.7784371759613441,1.218063662408378,0.03618574887514114,-0.02917504124343395,-0.01719276793301105,0.02384823560714722,0.01651036739349365,0.005823969841003418,2,0.5648739729178256,0.2406870846024406,0.4812725716388722,0.6255908676789051,-0.2425734102725983,-0.9384321570396423,-0.2459742426872253,-24.25718688964844,-45.15934753417969,9.26220703125,2
