loggingTime,loggingSample,identifierForVendor,motionTimestamp_sinceReboot,motionYaw,motionRoll,motionPitch,motionRotationRateX,motionRotationRateY,motionRotationRateZ,motionUserAccelerationX,motionUserAccelerationY,motionUserAccelerationZ,motionAttitudeReferenceFrame,motionQuaternionX,motionQuaternionY,motionQuaternionZ,motionQuaternionW,motionGravityX,motionGravityY,motionGravityZ,motionMagneticFieldX,motionMagneticFieldY,motionMagneticFieldZ,motionMagneticFieldCalibrationAccuracy
1596230643.940388,1,0,102976.102689,1.8069094710813,-0.9054025515848613,1.170413021673097,-0.03537631779909134,0.08686696738004684,-0.05058328807353973,-0.03629875183105469,0.01029396057128906,0.002737224102020264,2,0.5938187581174063,0.1645078449915812,0.4392812725456861,0.6537190167055753,-0.306623101234436,-0.9209116697311401,-0.2406329065561295,-23.60376739501953,-45.20692443847656,10.77239990234375,2
1596230643.940952,2,0,102976.132787,1.805359651083961,-0.8991853720060711,1.171653932876159,0.03738560527563095,0.1770359575748444,-0.03266140446066856,-0.04011714458465576,0.025920569896698,-0.01284122467041016,2,0.592750818001158,0.166538133980216,0.4402369855695162,0.6535310514009163,-0.3042259812355042,-0.9213946461677551,-0.2418230324983597,-23.59937286376953,-45.10841369628906,10.59857177734375,2
1596230643.971155,3,0,102976.162885,1.807795484953891,-0.8959951219789763,1.173282230270301,0.03461489453911781,0.1254995465278625,-0.03844562545418739,-0.002629369497299194,0.002543210983276367,0.01198685169219971,2,0.5920680718838603,0.1689022105786579,0.441476622982327,0.6527065763991128,-0.3022812604904175,-0.9220262169837952,-0.2418548762798309,-23.43315124511719,-45.16993713378906,10.41729736328125,2
1596230644.005807,4,0,102976.192983,1.806324487342238,-0.8933922742351359,1.174376409196748,-0.005437299609184265,-0.00430828332901001,-0.04048310965299606,0.03437134623527527,-0.005573153495788574,0.01369911432266235,2,0.5917692737116076,0.1697200096857128,0.4414304073790002,0.6527967287764229,-0.300864577293396,-0.9224492311477661,-0.2420084923505783,-23.56636047363281,-45.32468414306641,10.54013061523438,2
1596230644.031364,5,0,102976.223081,1.803680509234047,-0.8907733276660278,1.174291800086742,-0.01523835677653551,-0.02447596564888954,-0.02147295139729977,0.02101773023605347,0.02582693099975586,0.008366942405700684,2,0.5914039167384491,0.1697617941617211,0.4413678528019999,0.6531591579939445,-0.3002904057502747,-0.9224165678024292,-0.2428446859121323,-23.52129364013672,-45.23963165283203,10.50796508789062,2
1596230644.064683,6,0,102976.253178,1.802623542352829,-0.8921466738509926,1.175356820304068,0.02519747614860535,-0.1285566240549088,-0.06060406938195229,-0.01314187049865723,0.03410178422927856,-0.004349946975708008,2,0.5919445930148711,0.1693931800835136,0.4402888211767821,0.6534931744515082,-0.2998585999011993,-0.9228273630142212,-0.2418151050806046,-23.35323333740234,-45.23165130615234,10.7247314453125,2
1596230644.09163,7,0,102976.283276,1.801707030020085,-0.8967783936839799,1.178537188933512,0.07389097660779953,-0.2247225791215897,-0.1010574847459793,-0.02166014909744263,0.009475350379943848,-0.02312153577804565,2,0.5934797072905437,0.1687795447149715,0.4376374929504351,0.654040297551456,-0.2986806929111481,-0.9240478277206421,-0.2385905981063843,-23.21682739257812,-45.10961151123047,10.81423950195312,2
1596230644.127181,8,0,102976.313374,1.802447731963456,-0.9044775867132017,1.182025816625506,0.07908990234136581,-0.1915495991706848,-0.05375919118523598,-0.02336925268173218,0.02896398305892944,-0.0513606071472168,2,0.5955748554954493,0.1677661206458204,0.434514538722059,0.6544787395052259,-0.2979731559753418,-0.9253758192062378,-0.2342902421951294,-22.90390014648438,-45.08841705322266,10.97607421875,2
1596230644.151666,9,0,102976.343472,1.807837633816993,-0.9148102800273421,1.185539695386031,0.2342067956924438,-0.2026362121105194,-0.09622896462678909,-0.08181875944137573,0.01222717761993408,-0.158664345741272,2,0.5978356091659394,0.1672888986454953,0.4321068975149192,0.654133541000453,-0.2977992296218872,-0.9267020225524902,-0.2292140126228333,-22.76374816894531,-45.16703033447266,11.44952392578125,2
1596230644.186749,10,0,102976.37357,1.820440906477555,-0.936450956089902,1.194864146599471,0.3928643465042114,-0.5729807615280151,-0.2012818306684494,-0.1299658417701721,0.06618416309356689,-0.0979577898979187,2,0.6026370678474425,0.1674388977655611,0.4268269835069554,0.6531550649373732,-0.295716404914856,-0.9301657676696777,-0.217585563659668,-22.52976226806641,-45.37678527832031,11.81210327148438,2
1596230644.211991,11,0,102976.403667,1.839547973627308,-0.9607381805486358,1.203108039780661,0.1812712550163269,0.4888527095317841,0.01254619099199772,0.347665399312973,0.01930844783782959,0.2903682589530945,2,0.6071982727930493,0.1683460799774403,0.423123562702218,0.6511039753743123,-0.2946181893348694,-0.9331607818603516,-0.2059397101402283,-22.21332550048828,-45.22129058837891,12.44412231445312,2
1596230644.247955,12,0,102976.433765,1.854690320419638,-0.9710158146302196,1.20310273557724,0.2427601218223572,-0.2458885908126831,0.1960709691047668,0.06632152199745178,-0.05558383464813232,0.04971158504486084,2,0.6080973096626268,0.1696047983162116,0.4249234363845816,0.64876194822356,-0.2967233061790466,-0.9331588745117188,-0.2029037475585938,-22.39244842529297,-45.08001708984375,12.66647338867188,2
1596230644.272086,13,0,102976.463863,1.870009738571074,-0.9903009568297074,1.201305054494411,-0.07189100235700607,-0.08215697109699249,0.08370015770196915,-0.07307618856430054,-0.0002559423446655273,0.1228692531585693,2,0.6107042612486784,0.1673571987623731,0.4245785027181828,0.6471206287185423,-0.3019832074642181,-0.9325112104415894,-0.1980637460947037,-22.67911529541016,-45.08248138427734,12.79263305664062,2
1596230644.305016,14,0,102976.493961,1.871755001584102,-0.9936396550688001,1.199891215536227,0.04758619889616966,-0.0001369891688227654,0.03507114201784134,-0.07231038808822632,0.04098892211914062,-0.003386378288269043,2,0.6111159652665834,0.1662845097830829,0.4245706647020396,0.6470135430980826,-0.3037471771240234,-0.931999683380127,-0.1977734714746475,-22.57669830322266,-44.844970703125,12.77508544921875,2
1596230644.332405,15,0,102976.524059,1.872351559502802,-0.9920116114982938,1.199017663663718,-0.02218121103942394,0.10490632802248,0.02033437788486481,-0.08778506517410278,0.002383232116699219,-0.02617663145065308,2,0.6106268443594119,0.1666683712667425,0.4255372673660107,0.6467415246311683,-0.3041062355041504,-0.9316827058792114,-0.198713019490242,-22.76219940185547,-45.03020477294922,12.93988037109375,2
1596230644.366403,16,0,102976.554156,1.875023861564457,-0.9898641580592603,1.199841006325846,0.07045183330774307,0.1799459606409073,-0.04054319113492966,-0.1061260402202606,0.02812230587005615,-0.07043612003326416,2,0.6100334083095459,0.1684841014792723,0.426795945193625,0.6460013404006889,-0.3030376732349396,-0.9319814443588257,-0.1989447027444839,-22.81683349609375,-44.93989562988281,12.84524536132812,2
1596230644.392595,17,0,102976.584254,1.877976605483554,-0.9846411175185725,1.203123558010274,0.1014837473630905,0.3557024002075195,-0.09062067419290543,-0.02441129088401794,0.01867300271987915,0.006398618221282959,2,0.6090156886672491,0.1722913404588549,0.4283023552469986,0.6449594186388456,-0.2994438707828522,-0.9331663846969604,-0.198831170797348,-22.64890289306641,-44.88606262207031,12.79031372070312,2
1596230644.426106,18,0,102976.614352,1.882140934766776,-0.977674119250566,1.205609060367395,0.08448776602745056,0.3517268598079681,0.007592871785163879,0.05941537022590637,-0.009492635726928711,0.02648133039474487,2,0.6074205897829466,0.1767269349491231,0.430976542191367,0.6434804702397919,-0.2961273789405823,-0.9340568780899048,-0.1996156424283981,-22.73305511474609,-44.92209625244141,12.61495971679688,2
1596230644.452844,19,0,102976.6444505,1.889569720665469,-0.9769606263914968,1.205787358407589,0.09178164601325989,0.1032084301114082,0.04579626396298409,0.1163667440414429,0.0007343888282775879,0.003483772277832031,2,0.6066241063877998,0.1792773585061508,0.4335237477159645,0.6418130824242123,-0.2958467900753021,-0.9341205358505249,-0.1997336447238922,-22.70635223388672,-44.77835083007812,12.71060180664062,2
1596230644.484737,20,0,102976.6745485,1.901749236135685,-0.987588437576758,1.204621822899695,0.1351514160633087,-0.07397601008415222,0.2209244221448898,0.1893841326236725,-0.01215481758117676,-0.05353498458862305,2,0.6077187710048493,0.1791340719304038,0.4345693327792648,0.6401081943802711,-0.2988615036010742,-0.9337038993835449,-0.1971777528524399,-23.17906188964844,-44.90525817871094,12.80416870117188,2
1596230644.512705,21,0,102976.7046455,1.929426564808293,-1.018647190276446,1.199791779172438,0.2163195610046387,-0.2562196552753448,0.3495206832885742,0.05393272638320923,0.02276313304901123,-0.04895526170730591,2,0.6115506999327966,0.1758497412652981,0.4354678100491032,0.6367499963323893,-0.3086766302585602,-0.9319636225700378,-0.1901652216911316,-23.66720581054688,-44.60576629638672,12.92904663085938,2
1596230644.544803,22,0,102976.7347435,1.961161173288477,-1.055105892923157,1.195823460729574,0.3596246838569641,-0.1777416318655014,0.2538185119628906,-0.1026920080184937,0.03440457582473755,-0.08627533912658691,2,0.6163832257585838,0.1725307285953108,0.4356088613916439,0.6328901395292672,-0.3186179995536804,-0.9305175542831421,-0.1806097328662872,-23.68653106689453,-44.32705688476562,13.39971923828125,2
1596230644.573222,23,0,102976.7648415,1.99388777898336,-1.088754243523652,1.19617160344013,0.3059109449386597,0.01941081508994102,0.1097193136811256,-0.1115787923336029,0.05156278610229492,-0.03309673070907593,2,0.6209166926016757,0.1721723847758114,0.4354114360397416,0.6286780244525889,-0.3242264688014984,-0.9306449890136719,-0.1696382611989975,-23.93923187255859,-44.00896453857422,14.21951293945312,2
1596230644.606166,24,0,102976.7949395,2.023266687329832,-1.114360230736807,1.198141469314318,0.3751710951328278,0.05980473011732101,0.1157551929354668,-0.02890473604202271,-0.003021478652954102,-0.04670560359954834,2,0.6240796130701913,0.1740346088952219,0.4360190216577672,0.6245991757437996,-0.3268174231052399,-0.9313639998435974,-0.1604731827974319,-24.00548553466797,-43.88572692871094,14.5272216796875,2
1596230644.633367,25,0,102976.8250375,2.053498248194868,-1.139079188490939,1.199025965845432,0.325246274471283,0.1767680794000626,0.188185453414917,0.03620699048042297,0.06180357933044434,-0.05286693572998047,2,0.6268792597486812,0.1761293082464297,0.4374148446705579,0.6202171590077254,-0.329935759305954,-0.9316856861114502,-0.1520017236471176,-24.09352874755859,-43.73032379150391,14.96292114257812,2
1596230644.665157,26,0,102976.8551345,2.088581851645939,-1.168149291448296,1.197519182324878,0.4066174626350403,0.08888956904411316,0.1477433890104294,-0.1338825821876526,0.1034536361694336,-0.0810781717300415,2,0.6300839825456438,0.1776104909365509,0.43959292697714,0.6149851968903193,-0.3355052769184113,-0.9311372637748718,-0.1428973823785782,-24.33686065673828,-43.33000946044922,15.29959106445312,2
1596230644.693553,27,0,102976.8852325,2.123558499357034,-1.197864337403846,1.20314246073571,0.5490929484367371,0.08558084815740585,-0.1079525947570801,-0.003924816846847534,0.01283562183380127,-0.1471073031425476,2,0.6336544637369235,0.1816695735169074,0.4391342176683015,0.610441943783216,-0.3347212672233582,-0.9331731796264648,-0.1309563666582108,-24.60755157470703,-43.03369903564453,15.7850341796875,2
1596230644.726137,28,0,102976.9153305,2.174357948089044,-1.241926480850747,1.21077745327395,0.7068342566490173,0.1036341041326523,0.05331613123416901,0.08976438641548157,0.01487267017364502,0.01419293880462646,2,0.6387685936028624,0.1873077246423231,0.4381224988901177,0.6041019594746362,-0.3334118723869324,-0.9358901977539062,-0.1137809976935387,-24.47866058349609,-42.93443298339844,16.18231201171875,2
1596230644.753852,29,0,102976.9454285,2.225164623458449,-1.284949892973929,1.216134055714226,0.4740663468837738,0.1742144227027893,-0.06858103722333908,0.002862036228179932,0.01338446140289307,0.01821118593215942,2,0.643367778348616,0.1926592109235361,0.4379080012242351,0.5976595600491343,-0.3331825435161591,-0.9377638101577759,-0.09792066365480423,-24.82125091552734,-42.4853515625,17.1171875,2
1596230644.783951,30,0,102976.9755265,2.269219955617988,-1.324710428047635,1.223991171885408,0.6040559411048889,-0.1133076101541519,-0.1072536930441856,0.007434576749801636,0.05684685707092285,0.01580929756164551,2,0.6476249044097399,0.1979421984196727,0.4357295067518968,0.5929087223674021,-0.329655259847641,-0.9404634237289429,-0.08280173689126968,-24.57821655273438,-42.4285888671875,17.49307250976562,2
1596230644.813971,31,0,102977.0056235,2.305056192803508,-1.368839223661289,1.227659014374521,0.4115960001945496,-0.5099790692329407,-0.008734946139156818,-0.05317783355712891,0.09103262424468994,0.0002229809761047363,2,0.6535264031211826,0.1978891884541855,0.4308343716777933,0.5900211853650617,-0.3296056389808655,-0.9417037963867188,-0.06748621910810471,-24.50775146484375,-42.04815673828125,18.52487182617188,2
1596230644.844841,32,0,102977.0357215,2.348190128009987,-1.419312465671631,1.235068027710546,0.5779142379760742,-0.0769866406917572,-0.3534463346004486,-0.1285028755664825,-0.03077995777130127,-0.08119028806686401,2,0.6596910776804477,0.1998731689549933,0.4246791234149991,0.5869464653459677,-0.3256843686103821,-0.9441705942153931,-0.04971679672598839,-24.38204956054688,-42.01180267333984,19.14642333984375,2
1596230644.874119,33,0,102977.0658195,2.399057630803498,-1.470660689873573,1.249154712903741,0.4864817261695862,-0.3281142115592957,-0.2841122448444366,-0.09431225061416626,-0.001756608486175537,0.09983396530151367,2,0.6644399010431692,0.2066842401108191,0.4182980124578951,0.5838048915531375,-0.3145412504673004,-0.9487177133560181,-0.03160248696804047,-23.46024322509766,-41.70642852783203,20.00015258789062,2
1596230644.904732,34,0,102977.0959175,2.445626514835828,-1.525531860562003,1.257808032370879,0.6725659370422363,0.03792976588010788,-0.339680939912796,-0.0564083456993103,0.02441787719726562,-0.1869838237762451,2,0.6702597666000809,0.2092502874993055,0.4109741431669893,0.5814348687737878,-0.3075880408287048,-0.9514176845550537,-0.01393232494592667,-23.18158721923828,-41.90509796142578,20.50775146484375,2
1596230644.934403,35,0,102977.1260155,2.520625623831242,-1.579917888180947,1.267471427626516,0.716203510761261,0.6398669481277466,-0.1689352542161942,0.02564442157745361,-0.04400700330734253,-0.04407870769500732,2,0.6723679525981703,0.221999103855914,0.4115681405835243,0.5738027189567405,-0.2986830770969391,-0.954348623752594,0.002724531572312117,-22.7423095703125,-41.2410888671875,21.690185546875,2
1596230644.967071,36,0,102977.1561125,2.583134449605081,-1.629118057289726,1.267670254053724,0.5512940883636475,0.2517238855361938,0.0607932060956955,0.01394850015640259,-0.04577785730361938,-0.05271410942077637,2,0.6754346944364376,0.2291019888385503,0.4127533102746683,0.5665113169162372,-0.2979980707168579,-0.9544079899787903,0.0173994954675436,-22.73751831054688,-41.09055328369141,21.7342529296875,2
1596230644.994539,37,0,102977.1862105,2.651587601723909,-1.6810553994578,1.265599210834678,0.7162522673606873,0.4921397268772125,-0.08299773186445236,0.1320176124572754,0.06734788417816162,0.1708784103393555,2,0.6784967220702848,0.237010682475797,0.4149750102083338,0.5579103745630413,-0.2986569404602051,-0.9537877440452576,0.03306373208761215,-23.19818115234375,-40.37745666503906,22.37673950195312,2
1596230645.026251,38,0,102977.2163085,2.710787341852957,-1.726766706414338,1.264953119699242,0.4991101622581482,0.1493205726146698,0.1265867799520493,0.2569159865379333,-0.00325322151184082,0.1203153133392334,2,0.6809722812055856,0.244259764026082,0.4160168207071366,0.5509483160811335,-0.2974428236484528,-0.9535934329032898,0.04677215963602066,-23.26537322998047,-39.92445373535156,23.23919677734375,2
1596230645.05476,39,0,102977.2464065,2.735552284944853,-1.752554854878475,1.25288904520634,0.164982944726944,-0.286102294921875,0.4455962777137756,0.0871390700340271,0.03240829706192017,0.1211026906967163,2,0.6853340129767151,0.2420084620407709,0.4170122339785417,0.5457562628606107,-0.3074300587177277,-0.9498916268348694,0.0565016083419323,-23.65436553955078,-39.64635467529297,23.63006591796875,2
1596230645.08582,40,0,102977.2765045,2.743034776304377,-1.771848412312557,1.242128508986707,0.1443340629339218,-0.3659683763980865,0.2233301848173141,0.02291420102119446,-0.01249986886978149,0.1454910039901733,2,0.6902732521543629,0.2361200852531835,0.4150474003975689,0.5436043847876928,-0.3162804245948792,-0.9464731812477112,0.06445971131324768,-23.94686889648438,-39.32353210449219,24.046875,2
1596230645.114916,41,0,102977.3066015,2.739502197406246,-1.781932724686137,1.233946675409139,-0.2498315274715424,-0.6982514262199402,0.3757222294807434,0.125043123960495,-0.07275044918060303,0.4128813743591309,2,0.6941589498110248,0.2297317591598111,0.4125788504561168,0.5432730184538992,-0.3231764733791351,-0.9438005685806274,0.06926665455102921,-23.87439727783203,-39.1748046875,24.34567260742188,2
1596230645.145172,42,0,102977.3366995,2.697841270839008,-1.770500206044675,1.22402630689471,-0.5388720035552979,-1.203248262405396,0.4969772398471832,0.4812710285186768,-0.06392967700958252,0.4182310104370117,2,0.6980835400760508,0.2153837118662148,0.4076177164502651,0.5478477047485393,-0.3331075012683868,-0.9404753446578979,0.06742154806852341,-23.84221649169922,-39.27002716064453,24.57647705078125,2
1596230645.175156,43,0,102977.3667975,2.59954448775853,-1.732645961419603,1.202709674872308,-1.443605780601501,-2.576183319091797,1.437643647193909,0.4840776920318604,0.145856499671936,0.4620074033737183,2,0.7034424479911801,0.1848270084268255,0.3991166339718443,0.5583132423265151,-0.3551284372806549,-0.9330175518989563,0.0579846017062664,-23.56902313232422,-39.52716064453125,24.65274047851562,2
1596230645.206225,44,0,102977.3968955,2.460083338087144,-1.703462709034137,1.159617783272039,-1.859745979309082,-3.653628587722778,1.693765640258789,0.1580135822296143,-0.1295849084854126,0.3649427890777588,2,0.7138613875677833,0.129757187831955,0.3815836757634148,0.5726769737231224,-0.3961777985095978,-0.9166504144668579,0.0528700165450573,-23.00106048583984,-39.50511169433594,24.7469482421875,2
1596230645.235295,45,0,102977.4269925,2.277387291058264,-1.668624512756816,1.106866752853266,-2.983966827392578,-5.373733043670654,2.736597776412964,0.1462662518024445,-1.360095620155334,-0.2798497676849365,2,0.7201680161714608,0.05666147720201908,0.3558306877580139,0.5929014153021945,-0.4453264176845551,-0.8943010568618774,0.04370499029755592,-22.37061309814453,-39.49197387695312,24.87454223632812,2
1596230645.269109,46,0,102977.4570905,2.023046427950884,-1.658355612114321,1.010051321152709,-4.729787349700928,-8.254428863525391,4.396505832672119,1.208820700645447,-0.9635919332504272,0.1885478496551514,2,0.7204029974380437,-0.06536473580930985,0.3117997003571278,0.6160583398759075,-0.529779851436615,-0.8468591570854187,0.04650605469942093,-21.48094940185547,-40.46713256835938,24.52737426757812,2
1596230645.295534,47,0,102977.4871885,1.70417695340811,-1.682993686146841,0.8587745685556415,-6.693887233734131,-10.96498966217041,6.739151000976562,1.241861462593079,0.04182732105255127,0.7462531328201294,2,0.6929160270253891,-0.2375783591001878,0.2516176752525102,0.6325444002677139,-0.6492575407028198,-0.7570424675941467,0.07315219193696976,-21.30160522460938,-41.22924041748047,23.68832397460938,2
1596230645.325509,48,0,102977.5172865,1.354151404496393,-1.814772880780781,0.6946385579057718,-8.289346694946289,-13.60471820831299,6.175529956817627,1.149147748947144,1.11576509475708,1.668560862541199,2,0.6275247727462117,-0.4461024826215141,0.1537517404415911,0.6193268304004759,-0.7455325126647949,-0.6401078104972839,0.185589537024498,-21.876708984375,-42.03167724609375,21.41265869140625,2
1596230645.355814,49,0,102977.5473845,0.9733251532301347,-2.01606748398747,0.6413870546745903,-9.118969917297363,-15.07326412200928,4.43356466293335,1.295239686965942,0.3376743793487549,1.453054785728455,2,0.5240429290666894,-0.6308191990150771,0.001138767762136478,0.5722280533401527,-0.7231383919715881,-0.5983074307441711,0.3451077044010162,-21.27555847167969,-43.11985778808594,19.72708129882812,2
1596230645.388345,50,0,102977.5774815,0.6035229196542151,-2.219517168527927,0.6494568610262932,-7.804307460784912,-12.30752944946289,5.35316276550293,1.035990834236145,-0.2802412509918213,1.089057326316833,2,0.3877864559312705,-0.768247974416972,-0.1475196797350538,0.487498385110972,-0.6346270442008972,-0.6047539114952087,0.4811665713787079,-19.97610473632812,-45.79523468017578,14.67068481445312,2
1596230645.415992,51,0,102977.6075795,0.310837113769568,-2.439986012818622,0.6541752360132056,-2.997356176376343,-14.34278869628906,4.458291530609131,0.3368678092956543,1.096394538879395,1.583395481109619,2,0.2467392290898288,-0.8614980721688665,-0.2477075533735257,0.3682142481581199,-0.5121933817863464,-0.6085049510002136,0.6061183214187622,-21.14395141601562,-45.67727661132812,12.4906005859375,2
1596230645.44586,52,0,102977.6376772917,0.1293036287817561,-2.445077915811708,0.6307459123571282,-2.858201503753662,8.406692504882812,5.305214405059814,-1.154025316238403,0.8976924419403076,4.132756233215332,2,0.163361216922807,-0.8849047839997751,-0.2699816630439485,0.3425879880268372,-0.5181064605712891,-0.5897473096847534,0.6194867491722107,-23.81964111328125,-44.09979248046875,14.30899047851562,2
1596230645.476107,53,0,102977.6677752917,0.01012298851811754,-2.278729394881541,0.5940877500639218,2.532166004180908,4.140323638916016,-0.5603726506233215,-2.71013355255127,1.546852588653564,-0.4771511554718018,2,0.126791451097877,-0.8679562613276335,-0.2638473191577224,0.4011988848021404,-0.6295390129089355,-0.5597530603408813,0.5388482809066772,-30.85057067871094,-41.38190460205078,8.37884521484375,2
1596230645.506035,54,0,102977.6978732917,0.200113064742112,-2.246733199245738,0.593037646202857,2.98828649520874,2.626279592514038,-5.098752498626709,0.3955064415931702,0.8185228705406189,0.07684707641601562,2,0.2119114394226356,-0.845277296965504,-0.2207811568339063,0.4380130623079757,-0.6469128727912903,-0.5588825345039368,0.5188003182411194,-29.88540649414062,-42.17543029785156,8.751129150390625,2
1596230645.53635,55,0,102977.7279702917,0.3193792587729788,-2.415391603578857,0.7526126615113297,-4.748989105224609,-6.886970520019531,-6.534905433654785,1.324803113937378,0.07825809717178345,0.9376335144042969,2,0.2671048927251123,-0.8375745027672703,-0.2866316578248849,0.380744336293216,-0.4846820533275604,-0.6835480928421021,0.5457521677017212,-20.27764129638672,-46.7330322265625,9.586273193359375,2
1596230645.569053,56,0,102977.7580682917,0.4224262388568243,-2.629905487819729,0.9202908619827115,0.3475521206855774,-4.072614192962646,-2.853562593460083,1.796758532524109,-0.5156615972518921,-0.6995940208435059,2,0.2916081359451259,-0.8240006291437465,-0.3725411254719752,0.3117703700217537,-0.2965259253978729,-0.7957777976989746,0.5280246734619141,-14.17425537109375,-48.99668121337891,7.122528076171875,2
1596230645.596464,57,0,102977.7881662917,0.4022065053358692,-2.753031802066686,0.8959873358274038,-0.8774399161338806,-3.388761043548584,3.443166017532349,0.1472053825855255,-0.2843579649925232,0.89035964012146,2,0.2585919943797418,-0.8498344118305092,-0.3816853022524248,0.2553978702057649,-0.2366902679204941,-0.7808262705802917,0.5781766772270203,-10.58419036865234,-49.42231750488281,8.597564697265625,2
1596230645.626488,58,0,102977.8182642917,0.22728033595603,-2.673121166504358,0.8931504028249247,-0.7380087971687317,-1.492514729499817,2.123329401016235,-1.030722260475159,-0.03664612770080566,-0.5982937812805176,2,0.1990747041305677,-0.8602762519521945,-0.393637726736937,0.2556236703182433,-0.2830873131752014,-0.7790507674217224,0.5594119429588318,-13.49945068359375,-49.13194274902344,7.711456298828125,2
1596230645.656732,59,0,102977.8483622917,0.2299815512006418,-2.711555858453517,0.8924661641299682,-0.004256482236087322,-0.8077690005302429,-1.871099352836609,-0.6058895587921143,0.510480523109436,-0.109423041343689,2,0.1925930276426611,-0.8649209692977888,-0.3967641915744958,0.2395784496113556,-0.2616048157215118,-0.7786216139793396,0.5703607201576233,-15.22612762451172,-48.67443084716797,7.70477294921875,2
1596230645.686665,60,0,102977.8784592917,0.3021244748632264,-2.805674575226984,0.9264133649857033,-0.417304664850235,-1.329094886779785,-1.358473062515259,0.06074294447898865,-0.02900826930999756,-0.03492069244384766,2,0.2065803397639442,-0.8607496798639462,-0.4130083867961287,0.2141464765293553,-0.1980141997337341,-0.7994706034660339,0.5671309232711792,-13.67769622802734,-49.14503479003906,7.776580810546875,2
1596230645.716888,61,0,102977.9085572917,0.3347404101563058,-2.862931517204028,0.9339337934117685,0.11282879114151,-0.6745800375938416,-0.2908084988594055,0.5580753087997437,-0.1264268159866333,0.05719876289367676,2,0.2089602951778428,-0.8615123768979343,-0.4189286242041986,0.1965471434022013,-0.1635766923427582,-0.8039655089378357,0.5717359781265259,-11.05970764160156,-49.64765167236328,7.9183349609375,2
1596230645.747101,62,0,102977.9386552917,0.3329719561697974,-2.881690617020469,0.935365602380578,-0.1265637576580048,-0.3890605270862579,0.2275463193655014,0.4384609162807465,-0.0151212215423584,0.07869482040405273,2,0.2042870320105905,-0.8631698373721199,-0.4216685078691966,0.1881496105813881,-0.152527317404747,-0.8048161268234253,0.5735906958580017,-10.86301422119141,-49.54458618164062,7.91973876953125,2
1596230645.777077,63,0,102977.9687532917,0.3061500129544035,-2.876827033542706,0.934301128619103,-0.07253833115100861,-0.600202202796936,0.5277460217475891,-0.02082708477973938,0.1812746524810791,-0.01550066471099854,2,0.1936982019455339,-0.8656300733840483,-0.4232136014290601,0.1845423357266486,-0.1555393636226654,-0.8041839003562927,0.5736688375473022,-10.9993896484375,-49.60380554199219,7.807647705078125,2
1596230645.807111,64,0,102977.9988502917,0.2970889511171584,-2.897551631860732,0.9332920937314864,-0.03273658081889153,-0.9595983028411865,-0.2006696313619614,-0.1703018546104431,0.09016638994216919,0.2145371437072754,2,0.185349395793965,-0.8685756267404934,-0.4255426901589138,0.173595659733618,-0.1438137590885162,-0.8035837411880493,0.5775560140609741,-11.45753479003906,-49.63182067871094,7.95654296875,2
1596230645.837247,65,0,102978.0289482917,0.2978270029572975,-2.916878766692525,0.9366158478171492,0.05867429077625275,-0.1350127905607224,0.0447438582777977,-0.1721006631851196,-0.0563921332359314,-0.01328134536743164,2,0.1816037527570416,-0.8693850348885532,-0.4287233007191439,0.1654875053351081,-0.1320292055606842,-0.8055575489997864,0.5776205062866211,-11.07144165039062,-49.55189514160156,7.9439697265625,2
1596230645.867329,66,0,102978.0590462917,0.3084067305001115,-2.922489523972015,0.9287298187473912,0.3798485994338989,-0.07589361071586609,-0.4688187539577484,-0.1221889555454254,0.06209111213684082,-0.05826938152313232,2,0.1848892992503944,-0.8706798096399261,-0.4248735028832311,0.1649700008197361,-0.1301629692316055,-0.8008599281311035,0.584534764289856,-10.91017913818359,-49.64103698730469,8.10028076171875,2
1596230645.89749,67,0,102978.0891442917,0.3319928669510614,-2.959044697293658,0.926801191604946,0.06342851370573044,-0.8384876847267151,-0.3008466362953186,0.3496526479721069,-0.1095373034477234,-0.1061040163040161,2,0.1873759351098568,-0.8718370158096318,-0.4255409318323606,0.1539653805816859,-0.1089931726455688,-0.7997034788131714,0.5904190540313721,-10.11839294433594,-49.62892150878906,8.636566162109375,2
1596230645.92845,68,0,102978.1192422917,0.3333387615850787,-2.99812686964165,0.9229124479352318,0.003891104832291603,-1.347986936569214,0.06984174251556396,0.2132147252559662,0.01084649562835693,0.004901885986328125,2,0.1796342676435287,-0.8754323159979166,-0.4273067836426152,0.1369625324709664,-0.08628497272729874,-0.7973626852035522,0.5973004102706909,-9.3525390625,-49.67942810058594,9.167999267578125,2
1596230645.957659,69,0,102978.1493392917,0.325586446640973,-3.025055665756044,0.9247110663100245,0.09692367166280746,-0.7467880845069885,0.09611812978982925,-0.2889611423015594,0.04011332988739014,-0.2489625215530396,2,0.170444707287199,-0.8774618548033899,-0.4309654696605143,0.1236040693717365,-0.07000414282083511,-0.7984468340873718,0.5979813933372498,-9.419990539550781,-49.55155944824219,9.158905029296875,2
1596230645.987704,70,0,102978.1794372917,0.3248778187203464,-3.036302646556547,0.9184102552336798,0.2049771249294281,0.0065894047729671,0.01781738549470901,-0.1391357481479645,0.03617513179779053,-0.2361656427383423,2,0.1677870287050452,-0.8796071753456612,-0.4291663384903291,0.1181317008282063,-0.06380189210176468,-0.7946375012397766,0.6037225127220154,-9.218681335449219,-49.58789825439453,9.615631103515625,2
1596230646.017704,71,0,102978.2095352917,0.3160574120306668,-3.027534465643193,0.9128941296055586,0.1643155664205551,-0.01679975911974907,0.2760124206542969,-0.02424353361129761,-0.1190719604492188,-0.2036030292510986,2,0.1658406386635823,-0.8810445595803569,-0.4265103204450656,0.1197761175259111,-0.06959070265293121,-0.7912766933441162,0.607485294342041,-9.351791381835938,-49.45870208740234,9.767578125,2
1596230646.048032,72,0,102978.2396332917,0.3053490613452206,-3.02021504596118,0.9074905375579727,0.05560121685266495,0.3262383043766022,0.274252861738205,0.101726770401001,0.003299713134765625,0.02163982391357422,2,0.1627179574644507,-0.8826779977380381,-0.4241478610206559,0.1204203724003544,-0.07455188035964966,-0.7879610657691956,0.6111951470375061,-9.743934631347656,-49.59889221191406,10.15545654296875,2
1596230646.077993,73,0,102978.2697302917,0.284709262169608,-2.988028926231833,0.9021657058780977,0.2819797396659851,0.5782589316368103,0.3396484851837158,-0.2120298743247986,0.02350950241088867,-0.02184033393859863,2,0.1604084105377043,-0.8835030820914418,-0.420465099928613,0.1300021376327403,-0.09482230246067047,-0.7846713066101074,0.6126171350479126,-10.13930511474609,-49.22629547119141,10.31365966796875,2
1596230646.10803,74,0,102978.2998282917,0.2866034173389135,-2.970247398747038,0.8956768592557106,0.1029103994369507,0.8732461929321289,-0.2016867399215698,-0.03244644403457642,-0.05043959617614746,0.1440680027008057,2,0.1649288978369861,-0.8835824557390657,-0.4159926700265738,0.1379522973546712,-0.106566034257412,-0.7806323170661926,0.6158390045166016,-10.626708984375,-49.23919677734375,10.31106567382812,2
1596230646.138259,75,0,102978.3299262917,0.2864223703095513,-2.937114294626722,0.8916781353988964,0.1348802745342255,1.308851361274719,0.2064976990222931,0.06810083985328674,-0.1104741096496582,-0.03955292701721191,2,0.1716582841995189,-0.8820682543479681,-0.4114294086891668,0.1523644812337544,-0.1275412142276764,-0.7781268954277039,0.6150219440460205,-10.76008605957031,-48.97408294677734,10.40182495117188,2
1596230646.170211,76,0,102978.3600242917,0.279035692246804,-2.895789845174395,0.8887757721612989,0.1475229263305664,1.032712936401367,0.07829149812459946,-0.09482944011688232,-0.0009515285491943359,-0.3203823566436768,2,0.1768026314725292,-0.8800277397328673,-0.4071241817366568,0.168943963945621,-0.153389498591423,-0.7763006091117859,0.6114159822463989,-11.72393798828125,-49.10776519775391,10.10955810546875,2
1596230646.198731,77,0,102978.3901222917,0.2786007190547266,-2.864912700422182,0.8808769346624788,0.2002792805433273,1.128942370414734,0.1362521797418594,-0.005808919668197632,-0.07725107669830322,-0.1918219327926636,2,0.1826210385855602,-0.8790812156539358,-0.4008527137263395,0.1821617628236214,-0.1738616973161697,-0.7712973356246948,0.6122684478759766,-12.01018524169922,-49.11753082275391,10.13485717773438,2
1596230646.228427,78,0,102978.4202192917,0.2608235126704331,-2.808291071972478,0.8769185901262957,-0.1105553284287453,1.546625018119812,0.5717347860336304,-0.1900951266288757,-0.1160811185836792,-0.2584500312805176,2,0.185935803233088,-0.8761233829524178,-0.3955771837357817,0.2033579786250948,-0.209229439496994,-0.7687718868255615,0.6043286323547363,-12.77292633056641,-48.93772125244141,9.95001220703125,2
1596230646.258755,79,0,102978.4503172917,0.2416313107616921,-2.75380503718139,0.8726871314476996,0.2487233132123947,0.9408098459243774,0.1110321804881096,-0.2514297366142273,0.1393626928329468,-0.1334373950958252,2,0.188021571884843,-0.8730233059372648,-0.3906395495513654,0.2233362011323241,-0.2430581003427505,-0.7660589218139648,0.5950435996055603,-13.661376953125,-48.82685089111328,9.498565673828125,2
1596230646.288622,80,0,102978.4804152917,0.25691306657789,-2.73130930836489,0.8693915483111236,-0.02708042599260807,1.74680483341217,-0.2644766271114349,0.04332318902015686,-0.1547045707702637,0.3418676853179932,2,0.1988341740624986,-0.8696745857281275,-0.3852385460018219,0.2360562624783016,-0.257387101650238,-0.763936460018158,0.5917378067970276,-13.95627593994141,-48.87810516357422,9.34930419921875,2
1596230646.321884,81,0,102978.5105132917,0.2428322505653686,-2.644777332239743,0.8732849900701504,-0.1888179332017899,2.908143758773804,0.4758938848972321,-0.2123662531375885,-0.04071342945098877,0.1335833072662354,2,0.2095943653242535,-0.859302212817183,-0.3799164117593746,0.2708017251081649,-0.3061443567276001,-0.7664430737495422,0.5646601915359497,-14.06980133056641,-48.86325073242188,8.9888916015625,2
1596230646.349069,82,0,102978.5406112917,0.2507687284874579,-2.574226499405268,0.862552527101249,0.9550420045852661,2.347845792770386,-0.4594026207923889,0.144385814666748,0.3492876291275024,0.1478235721588135,2,0.2251498755629786,-0.8506454118026558,-0.3663744667414955,0.3024561705280515,-0.3495875895023346,-0.7595054507255554,0.5485801696777344,-15.39974212646484,-48.71578979492188,7.365081787109375,2
1596230646.37892,83,0,102978.5707082917,0.2851368629665119,-2.532319954375016,0.8467533126669452,0.7273098230361938,1.828221321105957,-0.03023280575871468,0.4177550077438354,-0.06863594055175781,0.4745703935623169,2,0.2455562457598012,-0.8433951141091089,-0.3490929212161989,0.326375657091328,-0.3790833652019501,-0.7491337060928345,0.5432263612747192,-15.32634735107422,-48.76427459716797,7.965789794921875,2
1596230646.40896,84,0,102978.6008062917,0.29584986732831,-2.47346391622561,0.823018625007833,0.8081235885620117,2.729663610458374,0.4785250723361969,0.2330509722232819,0.06456702947616577,0.6160109043121338,2,0.2573339107173963,-0.8370648825695364,-0.3294622360719628,0.3529253666171078,-0.42127925157547,-0.7332018613815308,0.5337967276573181,-16.07119750976562,-48.45604705810547,8.142913818359375,2
1596230646.439207,85,0,102978.6309044167,0.3187549628263594,-2.386999463573671,0.7905690298556348,1.568643927574158,4.283316612243652,-0.02835876122117043,-0.1252549886703491,0.1407797932624817,0.4715307950973511,2,0.2762291395580843,-0.8245868645157846,-0.2994902790489486,0.3925041478769926,-0.4818516373634338,-0.7107536792755127,0.5124920606613159,-17.76864624023438,-48.36399841308594,8.340576171875,2
1596230646.470367,86,0,102978.6610024167,0.3806644828796239,-2.283077074780076,0.7631849995259548,1.869475603103638,5.791370868682861,-0.6702479124069214,-0.4729961156845093,0.2012310028076172,0.5130480527877808,2,0.3118403202385496,-0.7993121727207448,-0.2594233954756875,0.4433454809161094,-0.5469455122947693,-0.6912265419960022,0.4722886681556702,-18.12335968017578,-47.77854919433594,8.38116455078125,2
1596230646.499455,87,0,102978.6910994167,0.4866402426164654,-2.147595898197687,0.7445791923567633,3.068219900131226,7.927226066589355,-1.514185070991516,-0.4211916923522949,0.4209710359573364,0.6175081729888916,2,0.3655939365868908,-0.7528989126742335,-0.203321381200659,0.5080794414141885,-0.616398811340332,-0.6776624321937561,0.4010314047336578,-18.36541748046875,-47.62979125976562,8.72613525390625,2
1596230646.529457,88,0,102978.7211974167,0.6408844335281396,-1.99244283595384,0.7526661003606939,2.935738563537598,9.229665756225586,-2.458461999893188,0.178715705871582,0.2417352199554443,1.088786363601685,2,0.4354710069426626,-0.6780260975078868,-0.1335867219605085,0.5768886051493172,-0.6659447550773621,-0.6835870742797852,0.2987087666988373,-18.02384185791016,-47.72021484375,8.992279052734375,2
1596230646.559597,89,0,102978.7512954167,0.7728013466003522,-1.800568298101956,0.7959340746443002,2.265524864196777,9.464874267578125,-2.078260660171509,0.8433202505111694,-0.08320307731628418,0.8293664455413818,2,0.4952542927516101,-0.5782681767522272,-0.06538214682739135,0.6450227603647533,-0.6812306642532349,-0.7145174145698547,0.1593417972326279,-16.85852813720703,-47.94894409179688,8.71771240234375,2
1596230646.589584,90,0,102978.7813934167,0.8861735614000499,-1.613901014357578,0.8290845452663297,2.679184675216675,8.02163028717041,-0.8176581859588623,1.114850759506226,-0.2031153440475464,0.1797351837158203,2,0.5350909615301215,-0.4777372383099728,0.008651787711746017,0.6966851056279778,-0.674923837184906,-0.7373132705688477,0.02911041118204594,-16.68752288818359,-48.14511871337891,8.2012939453125,2
1596230646.621503,91,0,102978.8114914167,1.016791525416976,-1.510099452693036,0.8523279806706933,2.934803009033203,5.683273315429688,-0.8801609873771667,0.5664443373680115,-0.009056150913238525,0.3795254826545715,2,0.5667282212273459,-0.3985662523621863,0.07531253552712625,0.7171416876873834,-0.6570204496383667,-0.752814769744873,-0.0399281308054924,-17.24739837646484,-47.88645172119141,9.124053955078125,2
1596230646.649745,92,0,102978.8415884167,1.140585346643876,-1.431126295585562,0.9000146697996337,2.920652151107788,5.854814529418945,-1.672098278999329,0.210863471031189,-0.1228004693984985,0.4068447947502136,2,0.5952527452970311,-0.3200090912650068,0.1266941861138837,0.7260971226090365,-0.6155455112457275,-0.7833360433578491,-0.08653669804334641,-17.46429443359375,-47.77526092529297,10.08364868164062,2
1596230646.679914,93,0,102978.8716864167,1.287035875860516,-1.351991556494727,0.9713760935409317,3.391843795776367,7.296854496002197,-1.906574964523315,0.3341991305351257,-0.02450454235076904,0.4979167580604553,2,0.623319558649728,-0.2241497894927251,0.1802743921610797,0.7271388797604406,-0.5507131814956665,-0.8256628513336182,-0.122459203004837,-16.77359771728516,-47.28382110595703,12.06463623046875,2
1596230646.709999,94,0,102978.9017844167,1.422499847696784,-1.231656878532154,1.056266436250263,2.839024305343628,8.073515892028809,-2.336002111434937,0.1447704434394836,0.07140183448791504,0.5679545402526855,2,0.6373092188683585,-0.1094432537593054,0.239750499621928,0.7241400984184569,-0.4640949070453644,-0.8705241680145264,-0.1637182682752609,-16.70721435546875,-47.04651641845703,12.89169311523438,2
1596230646.740315,95,0,102978.9318824167,1.515849242597302,-1.069231436571561,1.161595144381506,2.541661262512207,8.292059898376465,-2.733202219009399,0.2760146856307983,0.1165943145751953,0.2691764831542969,2,0.6357043728944254,0.01518655407669606,0.2914692996777076,0.7146294382190402,-0.348871111869812,-0.9174389243125916,-0.191298633813858,-16.72409820556641,-46.89463806152344,13.34542846679688,2
1596230646.770408,96,0,102978.9619804167,1.543423223842102,-0.8719366002091277,1.253585706290895,1.34676468372345,6.534884452819824,-2.113176345825195,0.4314613044261932,0.1449671387672424,0.02356517314910889,2,0.6195781928307857,0.1256478405324509,0.3344462765456412,0.6989144185591947,-0.2387970685958862,-0.9501091837882996,-0.2006709724664688,-16.29834747314453,-47.07891082763672,13.49594116210938,2
1596230646.800365,97,0,102978.9920774167,1.439975940413661,-0.6165020233385134,1.31838478443703,0.502549409866333,2.861744165420532,-2.172331571578979,0.8229339122772217,-0.1767587661743164,-0.4021323323249817,2,0.5969025083339501,0.204512117279217,0.3569571436537572,0.6888133705722734,-0.1443958729505539,-0.9683129787445068,-0.2037643790245056,-15.61563110351562,-47.38682556152344,12.74240112304688,2
1596230646.830289,98,0,102979.0221754167,1.257097902363856,-0.4228875354594655,1.340304103281484,-0.4202663004398346,-1.089299440383911,-0.6858487129211426,1.219630718231201,-0.3683455586433411,-0.01072192192077637,2,0.5879222139038893,0.224012040826559,0.3451070774321068,0.6964677982517699,-0.09375789016485214,-0.9735540747642517,-0.2083321511745453,-14.48816680908203,-47.95967864990234,12.2220458984375,2
1596230646.860644,99,0,102979.0522734167,1.259309950477074,-0.4682412474256197,1.327716779711041,-0.3512229919433594,-1.218272805213928,0.6060110926628113,0.464792937040329,-0.05055296421051025,0.2932443618774414,2,0.5920101528419028,0.2052584138900898,0.3356201137427137,0.7033862892861558,-0.108629122376442,-0.9706013798713684,-0.2147859185934067,-12.95330047607422,-48.46479034423828,11.90365600585938,2
1596230646.890541,100,0,102979.0823714167,1.28809916374056,-0.4954794785150469,1.321624101857227,0.2126676440238953,1.248592734336853,-0.148129865527153,-0.3648033738136292,-0.002222299575805664,0.09706950187683105,2,0.59206136237882,0.2024608235811153,0.3392180885351954,0.7024273075862311,-0.1172478273510933,-0.9691168665885925,-0.2169459164142609,-13.23388671875,-48.19263458251953,12.00314331054688,2
1596230646.921118,101,0,102979.1124684167,1.23753297688993,-0.3976042300892101,1.333367312929872,0.1840074360370636,1.332979083061218,-0.6778925657272339,0.03409451246261597,-0.3336901664733887,-0.490925669670105,2,0.5838345075071892,0.225185406318363,0.3473700974437787,0.6984004289936061,-0.0910741314291954,-0.9719458818435669,-0.2168575972318649,-13.26831817626953,-48.41457366943359,11.88204956054688,2
1596230646.950678,102,0,102979.1425664167,1.216461601870956,-0.3713558144090972,1.340179409806411,-0.08237823843955994,-0.7455731630325317,0.4207484722137451,0.7404400110244751,-0.2870444059371948,-0.1745105385780334,2,0.5835954660951226,0.2300373780544184,0.3460659779262973,0.6976659290907926,-0.08294659107923508,-0.9735255837440491,-0.2129982709884644,-12.96397399902344,-48.52924346923828,11.89041137695312,2
1596230646.98098,103,0,102979.1726644167,1.324244766180532,-0.5033825501333765,1.31934338825193,-0.2413827776908875,-1.051547288894653,1.396359920501709,0.02468466758728027,0.1928837299346924,0.174379825592041,2,0.5891105925953769,0.209700793293653,0.3501227939910551,0.6974156392835162,-0.1200248673558235,-0.9685519337654114,-0.2179485708475113,-13.3360595703125,-48.21914672851562,11.82254028320312,2
1596230647.010863,104,0,102979.2027624167,1.391474708885448,-0.592629567179244,1.307187328595986,0.04602933675050735,-0.2752975821495056,-0.2972418367862701,-0.6410114169120789,0.1641259789466858,0.1960076093673706,2,0.594966609451106,0.194802555103211,0.3503956814511112,0.6966272746237465,-0.1455379128456116,-0.9654558897018433,-0.2161334007978439,-14.55721282958984,-47.83314514160156,12.082763671875,2
1596230647.041104,105,0,102979.2328604167,1.31672151395931,-0.5103235402682273,1.315537462676444,-0.2253439575433731,0.6591915488243103,-0.6180060505867004,-0.2931276261806488,-0.110222339630127,0.1158143281936646,2,0.5901258903829145,0.2039339680849588,0.3464375393871945,0.7001024825773213,-0.1233341693878174,-0.9675979614257812,-0.2203247398138046,-14.25455474853516,-47.91202545166016,11.80032348632812,2
1596230647.071433,106,0,102979.2629574167,1.270490711971883,-0.4465451280267762,1.317546306337529,0.01584349758923054,0.4613510966300964,-0.2552005052566528,0.2137034833431244,0.0854649543762207,-0.0947265625,2,0.5843954465285924,0.213283220540556,0.3484590303069626,0.7011196908838276,-0.1082016080617905,-0.9681032299995422,-0.2259844541549683,-13.64964294433594,-48.49464416503906,11.30123901367188,2
1596230647.101219,107,0,102979.2930554167,1.247206303619414,-0.4220030281777,1.322541131311781,0.06260523200035095,-0.3788933455944061,-0.1700883805751801,0.3455965220928192,-0.06423366069793701,-0.09395468235015869,2,0.5839981663006401,0.2164893203934273,0.3462385107820437,0.7015679035355944,-0.1006413921713829,-0.9693425893783569,-0.2241570353507996,-13.60697937011719,-48.24191284179688,11.24703979492188,2
1596230647.131307,108,0,102979.3231534167,1.256221953913282,-0.4452795065172505,1.320226048782482,-0.09109322726726532,-0.4244575500488281,0.3470538258552551,0.1645965874195099,-0.001702308654785156,0.01410597562789917,2,0.5864139894544282,0.2103074383045363,0.3431591525495169,0.7029448012374953,-0.1067976132035255,-0.9687711596488953,-0.2237788289785385,-13.13644409179688,-48.53189086914062,11.83123779296875,2
1596230647.161527,109,0,102979.3532514167,1.289665048173,-0.4859712759401034,1.318145839786353,0.2469569891691208,-0.2293128073215485,0.03750102967023849,-0.08367282152175903,0.05166721343994141,-0.1273068189620972,2,0.5893690719265344,0.2052535533203335,0.3434642916339639,0.7018172355558465,-0.1167534962296486,-0.9682532548904419,-0.2210301458835602,-13.29314422607422,-48.48649597167969,11.69024658203125,2
1596230647.191512,110,0,102979.3833494167,1.292589640540985,-0.4944771553659728,1.324654938251783,0.0785224586725235,-0.1563729047775269,0.02032166346907616,0.05519354343414307,0.0227934718132019,0.1075053215026855,2,0.592222727057918,0.2050212919598206,0.3403135683665991,0.7010173278048213,-0.1156359016895294,-0.9698598384857178,-0.2144770175218582,-13.33577728271484,-48.27075958251953,12.03982543945312,2
1596230647.22175,111,0,102979.4134464167,1.322822647065937,-0.5287006011720784,1.323676157634587,0.305024117231369,-0.187997430562973,0.2522292733192444,-0.1777035295963287,0.03182828426361084,-0.001011133193969727,2,0.594727683469753,0.2017219252889543,0.3409985681519808,0.6995194037779151,-0.1233857721090317,-0.9696208834648132,-0.2112144976854324,-13.48876953125,-48.24599456787109,12.19818115234375,2
1596230647.254716,112,0,102979.4435444167,1.338715946724129,-0.5482414227594588,1.333416928527273,0.01365611702203751,0.04886223748326302,-0.3493529558181763,-0.1464199423789978,0.02899384498596191,0.2411919832229614,2,0.5988540952183278,0.2025518001963421,0.3381277480878772,0.6971487723151844,-0.1225608959794044,-0.9719575643539429,-0.2006930857896805,-13.55684661865234,-48.03215026855469,12.80313110351562,2
1596230647.281882,113,0,102979.4736424167,1.313051640114965,-0.5151507871043719,1.332769634444025,0.1184387654066086,0.4405915141105652,0.1297444105148315,-0.01919206976890564,-0.05213892459869385,-0.1481144428253174,2,0.5957122289216252,0.2062386237259886,0.3392285179982833,0.6982239561680066,-0.1161636561155319,-0.9718051552772522,-0.2051851451396942,-13.30229949951172,-48.06819915771484,12.848388671875,2
1596230647.311953,114,0,102979.5037404167,1.327437145033523,-0.5213077854190949,1.333927752076744,-0.1203756108880043,-0.02928496524691582,-0.1346930414438248,-0.07028535008430481,0.01660346984863281,-0.01242721080780029,2,0.5955597890220716,0.2087185862728687,0.3421054542230513,0.6962105577233245,-0.116864338517189,-0.9720775485038757,-0.2034901827573776,-13.63471984863281,-48.035888671875,12.74493408203125,2
1596230647.342115,115,0,102979.5338384167,1.299285417730335,-0.4953370063034648,1.334078394007127,-0.05390552058815956,0.160263255238533,-0.06065922603011131,0.1050642728805542,-0.01287096738815308,-0.02035427093505859,2,0.5941123086371025,0.2094439171243386,0.3399759930585617,0.6982695681878901,-0.1114712134003639,-0.9721128940582275,-0.2063276171684265,-13.49822235107422,-48.08058929443359,12.58062744140625,2
1596230647.372184,116,0,102979.5639354167,1.31504767865734,-0.5013209471814321,1.330671569278327,-0.02646910399198532,0.2842546999454498,0.2197359502315521,-0.1053763329982758,-0.0187828540802002,0.005894660949707031,2,0.5926070590034989,0.2110383356809569,0.3445805113484075,0.6968098880278344,-0.1142944917082787,-0.9713082909584045,-0.2085593938827515,-13.68178558349609,-48.14405059814453,12.35586547851562,2
1596230647.405118,117,0,102979.5940334167,1.309030376240308,-0.4882072320147888,1.328182354744673,-0.1420085579156876,0.2376300096511841,-0.1973172575235367,-0.02462708950042725,0.0542680025100708,0.006935596466064453,2,0.5903397364168186,0.2130995405845074,0.3470062682333752,0.6969034147606237,-0.112683579325676,-0.9707133173942566,-0.2121751606464386,-13.68757629394531,-48.20877838134766,12.1490478515625,2
1596230647.432269,118,0,102979.6241311667,1.289689501064556,-0.463946252739496,1.328502419568189,-0.00519059132784605,0.2575932443141937,-0.09394103288650513,0.2251228988170624,0.08976149559020996,-0.0325695276260376,2,0.5882863623406153,0.2159512898085813,0.3473304879629576,0.6976000726644593,-0.1073643043637276,-0.9707901477813721,-0.2145683914422989,-13.46532440185547,-48.24831390380859,12.04229736328125,2
1596230647.462531,119,0,102979.6542291667,1.26288121697705,-0.4435637043272686,1.333272926534185,0.2005848735570908,-1.165395498275757,-0.5878224968910217,-0.1592326462268829,-0.1502090096473694,-0.2552963495254517,2,0.5889395010376441,0.2165338779755172,0.3427743481460162,0.6991203429563961,-0.1009802296757698,-0.9719237089157104,-0.2125266939401627,-12.94783020019531,-48.32245635986328,12.00881958007812,2
1596230647.49275,120,0,102979.6843271667,1.185598492769512,-0.392455322696209,1.341375019420119,-0.06748238950967789,-0.391507476568222,-0.497048020362854,-0.1466489434242249,0.06497848033905029,0.1101585030555725,2,0.5909204854586465,0.2138936115270121,0.3287678139850845,0.704964129019416,-0.08697662502527237,-0.9737981557846069,-0.2101249992847443,-12.30593109130859,-48.62665557861328,12.27789306640625,2
1596230647.522792,121,0,102979.7144241667,1.200428175098761,-0.4131564858159971,1.341120147582777,-0.004437780939042568,-0.01188518479466438,0.5799647569656372,0.05706095695495605,-0.07369112968444824,0.09042096138000488,2,0.5926721885887705,0.2109179003352878,0.3279290183485732,0.7047808079092781,-0.09140703827142715,-0.9737401604652405,-0.2085066288709641,-11.61800384521484,-48.48130035400391,12.438232421875,2
1596230647.553921,122,0,102979.7445221667,1.264457014192465,-0.4712849389036394,1.330899136477467,-0.1553905159235001,0.1151554062962532,0.5236040353775024,-0.0282917320728302,-0.04672831296920776,0.02548307180404663,2,0.5928398197436362,0.2066164060113652,0.3357288389764146,0.7022371034412151,-0.1078794375061989,-0.9713624119758606,-0.2117012143135071,-12.28401184082031,-48.57389831542969,12.39309692382812,2
1596230647.582945,123,0,102979.7746201667,1.311702251217755,-0.5149644660479796,1.319185826747179,-0.1478445380926132,0.2209403961896896,0.5469806790351868,-0.01161384582519531,0.01189136505126953,0.00844651460647583,2,0.5923662732022519,0.2019013200139252,0.3423583773307957,0.7008058545988098,-0.122615858912468,-0.9685127139091492,-0.2166761159896851,-13.36531066894531,-48.20877838134766,12.0023193359375,2
1596230647.612851,124,0,102979.8047181667,1.353955116901398,-0.5389484485857429,1.307286402280924,-0.1533820927143097,0.8876386880874634,0.3936530649662018,-0.1896958947181702,0.05296242237091064,0.06558465957641602,2,0.5892737140064203,0.2024399134219126,0.3531810083515103,0.6978809752175821,-0.1336826384067535,-0.965481698513031,-0.2235491424798965,-13.88005828857422,-48.35179901123047,11.75650024414062,2
1596230647.643451,125,0,102979.8348161667,1.375727126099752,-0.5317265860370771,1.30069930086071,-0.03772824257612228,0.7757664322853088,0.2429098188877106,-0.09135973453521729,0.04630410671234131,-0.0641058087348938,2,0.5841102919804751,0.2093376416848691,0.3646301552267674,0.6942895798393309,-0.1352865695953369,-0.9637449979782104,-0.2299858331680298,-15.01275634765625,-48.26988220214844,11.20465087890625,2
1596230647.673108,126,0,102979.8649131667,1.393521203812967,-0.5283801361128169,1.298399518900477,0.0162336491048336,0.7034436464309692,0.05394988134503365,0.05236297845840454,0.05391949415206909,0.01377618312835693,2,0.5810423358842157,0.2149757958367027,0.3723806864830279,0.6910194887957217,-0.1356329619884491,-0.9631288051605225,-0.2323504239320755,-15.59759521484375,-48.15290832519531,11.04281616210938,2
1596230647.704848,127,0,102979.8950111667,1.397574485542597,-0.5133012319042735,1.297905101817039,0.0115410927683115,0.4196223318576813,0.09735164046287537,0.1107852458953857,-0.005632936954498291,-0.01381707191467285,2,0.5776494638506335,0.2211993882739719,0.3782783891573248,0.6886925738849752,-0.1323478668928146,-0.962995707988739,-0.2347838580608368,-15.79616546630859,-48.11778259277344,10.541015625,2
1596230647.733257,128,0,102979.9251091667,1.413449073444986,-0.5247167060613503,1.294924462455157,-0.04148079827427864,-0.1578827351331711,0.2147050201892853,0.09317636489868164,-0.02692914009094238,0.006700456142425537,2,0.577335256419937,0.2209372255428788,0.3812383035426133,0.6874070177057974,-0.1364570260047913,-0.9621880650520325,-0.2357414811849594,-15.92593383789062,-48.24342346191406,10.56082153320312,2
1596230647.763538,129,0,102979.9552071667,1.428083634724441,-0.546548968936742,1.291253627347296,0.01346792001277208,-0.3022671639919281,0.06620314717292786,0.02453646063804626,0.02385449409484863,-0.01733690500259399,2,0.5790146937861277,0.216520268903639,0.3809466429329166,0.6875614598563954,-0.1434054225683212,-0.9611817002296448,-0.2357219159603119,-16.24707794189453,-47.74797058105469,10.53286743164062,2
1596230647.793792,130,0,102979.9853051667,1.433817815085223,-0.5596131877705695,1.289692483676118,0.04696463420987129,-0.1837907880544662,0.07860145717859268,-0.06901994347572327,0.06821644306182861,-0.04245764017105103,2,0.5805136895025655,0.2131990102036148,0.379556463981008,0.6881040784702666,-0.1472692340612411,-0.9607498049736023,-0.2351000756025314,-16.43968200683594,-47.86019134521484,10.6976318359375,2
1596230647.823805,131,0,102980.0154021667,1.447484331412236,-0.5767617820880211,1.290701335041409,0.08475300669670105,-0.141638457775116,0.06334938108921051,-0.08000242710113525,-0.00608527660369873,-0.003014922142028809,2,0.5825491807045334,0.211596058779983,0.3789920642275604,0.687188957419851,-0.1507500857114792,-0.9610291719436646,-0.231727123260498,-16.27311706542969,-47.52941131591797,10.7047119140625,2
1596230647.853648,132,0,102980.0455001667,1.445498236500532,-0.5748888578765814,1.292700862623951,-0.001443067565560341,0.1125578060746193,-0.08880175650119781,-0.06990534067153931,0.03626668453216553,0.04624950885772705,2,0.5828658120831365,0.2122954448621627,0.3783036473197232,0.6870841670795049,-0.1492708474397659,-0.9615800380706787,-0.230396181344986,-16.44969177246094,-47.33342742919922,11.08016967773438,2
1596230647.883917,133,0,102980.0755981667,1.443021954056133,-0.5683209531277841,1.291751036841252,-0.01367206778377295,0.1341440677642822,0.03203560411930084,-0.0315919816493988,0.004141628742218018,0.002943873405456543,2,0.5816652500492955,0.2135298590314389,0.3796266472419926,0.6869892870422563,-0.1482458114624023,-0.9613188505172729,-0.2321410775184631,-16.38318634033203,-47.63435363769531,10.89910888671875,2
1596230647.913778,134,0,102980.1056961667,1.444409204156755,-0.5651483674110344,1.290506898205654,-0.06480377167463303,0.1269684880971909,0.02996063977479935,0.00180286169052124,-0.01218247413635254,0.01739788055419922,2,0.5806242465363111,0.2146286024340555,0.3813665989351486,0.686563691837052,-0.1481489837169647,-0.9609754085540771,-0.2336200922727585,-16.47816467285156,-47.60878753662109,10.79251098632812,2
1596230647.94413,135,0,102980.1357931667,1.447579261501243,-0.5641165038694453,1.288634373287958,0.002620852552354336,0.1806319952011108,0.0462939664721489,0.02812239527702332,0.01826620101928711,-0.01473528146743774,2,0.5796511464156328,0.2153093011478692,0.3832676267913447,0.6861140186392902,-0.1488695740699768,-0.9604557156562805,-0.235292911529541,-16.49452209472656,-47.71929931640625,10.47674560546875,2
1596230647.974105,136,0,102980.1658911667,1.454503823796108,-0.563547835085201,1.288859944786406,0.05759645998477936,0.2802175283432007,0.05706604197621346,-0.02332350611686707,0.03409242630004883,-0.01837491989135742,2,0.578844610658351,0.2175809869480845,0.3857435364407957,0.6846894429303505,-0.1486203223466873,-0.960518479347229,-0.2351948618888855,-16.75350952148438,-47.65970611572266,10.69107055664062,2
1596230648.005029,137,0,102980.1959891667,1.461039829989616,-0.564537233991424,1.289033013599879,0.01753615960478783,-0.008234798908233643,0.02312362752854824,-0.000426948070526123,0.02431458234786987,-0.008473634719848633,2,0.5783621595618568,0.2191885110242825,0.3876453155985485,0.6835093122670477,-0.1487639844417572,-0.9605666399002075,-0.2349072247743607,-16.96034240722656,-47.56773376464844,10.62472534179688,2
1596230648.034337,138,0,102980.2260871667,1.460371891775333,-0.5659824821033373,1.289670219117002,0.02479459717869759,-0.09140431880950928,-0.05939517915248871,0.03921124339103699,0.01431655883789062,0.009674489498138428,2,0.5788616905511719,0.2187042874676559,0.3868232972915093,0.6837071864430195,-0.1487749963998795,-0.9607436060905457,-0.2341751605272293,-16.77704620361328,-47.61295318603516,10.57351684570312,2
1596230648.064372,139,0,102980.2561851667,1.452519172989911,-0.5609590126299602,1.291550288078881,0.02390773966908455,-0.08238518238067627,-0.1316412836313248,0.003412097692489624,0.0348934531211853,0.01406633853912354,2,0.5791848947688275,0.2187464563051225,0.3850745032424353,0.6844067997595,-0.1466355472803116,-0.9612635374069214,-0.2333896905183792,-16.56090545654297,-47.65464782714844,10.7298583984375,2
1596230648.094423,140,0,102980.2862831667,1.442281539875178,-0.5549915100709557,1.294352814576134,0.03294350951910019,-0.2294387221336365,-0.1269806325435638,0.001503914594650269,-0.01251459121704102,0.003227591514587402,2,0.5798112435144251,0.2187098935062743,0.3825297197131549,0.6853145347676163,-0.1438199281692505,-0.9620321989059448,-0.231969803571701,-16.52037811279297,-47.74427795410156,10.879150390625,2
1596230648.124583,141,0,102980.3163801667,1.431970105356521,-0.5523492361185988,1.296219094665565,0.01427015103399754,-0.2284879684448242,-0.1152211800217628,-0.03207078576087952,0.006844639778137207,0.001009464263916016,2,0.5808693402139089,0.2172111932897929,0.3792499252766187,0.6867166159898723,-0.1422642320394516,-0.9625399112701416,-0.2308202087879181,-16.31501007080078,-47.84312438964844,11.1083984375,2
1596230648.154661,142,0,102980.3464781667,1.427894801150498,-0.5539614077672751,1.298744214806454,0.04753889143466949,-0.1492402851581573,0.009779877029359341,-0.0470283031463623,0.01327294111251831,-0.012931227684021,2,0.5822098791577138,0.216264118907837,0.3766927801710885,0.6872875821223472,-0.1413572281599045,-0.9632214903831482,-0.2285229712724686,-16.06282043457031,-47.87982177734375,10.98428344726562,2
1596230648.184664,143,0,102980.3765761667,1.437358125896442,-0.5666640662599253,1.297400460532715,-0.03770559281110764,-0.0740281343460083,0.1187417209148407,0.00145256519317627,-0.02000719308853149,0.01035416126251221,2,0.5832693602360545,0.214234402370564,0.3766110292107593,0.6870697604483205,-0.1449433863162994,-0.962859570980072,-0.2278009504079819,-16.22373962402344,-47.8597412109375,11.13705444335938,2
1596230648.21479,144,0,102980.4066741667,1.440689886377605,-0.5696019263660489,1.294825575050039,-0.06526027619838715,0.1084549948573112,0.07286778092384338,0.009588479995727539,0.02896749973297119,0.03083550930023193,2,0.5828697045225333,0.2133835686586019,0.3776070596849742,0.6871268565034208,-0.1469482630491257,-0.962161123752594,-0.2294607162475586,-16.35260772705078,-47.77626800537109,11.26119995117188,2
