loggingTime,loggingSample,identifierForVendor,motionTimestamp_sinceReboot,motionYaw,motionRoll,motionPitch,motionRotationRateX,motionRotationRateY,motionRotationRateZ,motionUserAccelerationX,motionUserAccelerationY,motionUserAccelerationZ,motionAttitudeReferenceFrame,motionQuaternionX,motionQuaternionY,motionQuaternionZ,motionQuaternionW,motionGravityX,motionGravityY,motionGravityZ,motionMagneticFieldX,motionMagneticFieldY,motionMagneticFieldZ,motionMagneticFieldCalibrationAccuracy
1596230404.81052,1,0,102736.9988085,0.5540189505905655,0.7197947896600054,1.175670514117715,-0.04047470539808273,-0.1174697875976562,-0.04567916691303253,-0.03159675002098083,0.0186002254486084,-0.02226459980010986,2,-0.4190982569355797,-0.4238355173015645,-0.400853658724268,-0.6957271929005182,0.253753662109375,-0.9229481220245361,-0.2894402146339417,-1.123001098632812,-49.90131378173828,5.17120361328125,2
1596230404.838234,2,0,102737.0289065,0.5537430118812416,0.7148625059468867,1.175209372292307,0.06110124289989471,-0.2462117671966553,0.04558883979916573,0.07590901851654053,0.03052031993865967,-0.04136449098587036,2,-0.4199586300151967,-0.4220543197221093,-0.3996908232289312,-0.696959202229501,0.2526020705699921,-0.9227705597877502,-0.2910098135471344,-1.236640930175781,-49.94558715820312,5.242950439453125,2
1596230404.868345,3,0,102737.0590045,0.5548014488464892,0.7069475586819904,1.178509875652963,0.02272200211882591,-0.19431272149086,0.09486182034015656,0.001614630222320557,-0.002909243106842041,0.006979286670684814,2,-0.4226405952928772,-0.41956365329934,-0.398617143020344,-0.6974564650345723,0.2483111917972565,-0.9240373373031616,-0.2906825244426727,-1.104721069335938,-49.92360687255859,5.3018798828125,2
1596230404.904474,4,0,102737.0891015,0.5573249369874613,0.7009172701613504,1.180269129150267,0.07185230404138565,-0.02993802912533283,0.02190609462559223,-0.07935762405395508,0.02258157730102539,0.009627938270568848,2,-0.4240198136292008,-0.4180205495601338,-0.3983371025081471,-0.6977059666513206,0.2455052137374878,-0.9247084856033325,-0.2909320294857025,-1.110725402832031,-49.96199035644531,5.19573974609375,2
1596230404.928658,5,0,102737.1191995,0.5554189137434637,0.705280573265495,1.181099819484772,-0.003361168317496777,0.1155750453472137,0.03253648430109024,0.0303061306476593,-0.0006886720657348633,-0.0002015233039855957,2,-0.4238827146682361,-0.4191502643390932,-0.3986521442640313,-0.6969311060865445,0.2462742030620575,-0.9250243902206421,-0.2892729938030243,-1.299591064453125,-49.88562774658203,5.386322021484375,2
1596230404.964988,6,0,102737.1492975,0.5585967394569623,0.70541258122925,1.182970963768894,0.01934005133807659,0.01356203854084015,0.1015028804540634,0.09338670969009399,0.005843281745910645,-0.01458603143692017,2,-0.4239402432762976,-0.4198970825697343,-0.3999100242680777,-0.6957248673804803,0.2451897710561752,-0.9257336258888245,-0.2879222333431244,-1.314285278320312,-49.934326171875,5.607208251953125,2
1596230404.991715,7,0,102737.1793945,0.5709924936542484,0.6893686666050723,1.181846474714451,-0.208820253610611,-0.280884861946106,0.04194033890962601,-0.03385663032531738,0.02309668064117432,-0.08173727989196777,2,-0.4241072700535055,-0.4169198811990718,-0.4007533055382549,-0.6969271744769978,0.2412008047103882,-0.9253078103065491,-0.2926216721534729,-1.509613037109375,-49.78212738037109,5.270294189453125,2
1596230405.024264,8,0,102737.2094925,0.5718356944282245,0.6825693768336075,1.181659152470076,0.1713923811912537,-0.157454326748848,0.06926096975803375,-0.04648688435554504,0.006392240524291992,-0.007602989673614502,2,-0.4252171509713336,-0.4147234456152746,-0.3995922917196826,-0.6982269722386973,0.2393151968717575,-0.9252367615699768,-0.2943896651268005,-1.457908630371094,-49.9937744140625,5.252288818359375,2
1596230405.049009,9,0,102737.2395905,0.5802535369698262,0.6751595876565299,1.185661838373472,-0.1776060909032822,0.1384261250495911,0.1386123299598694,-0.1696827113628387,-0.007090330123901367,0.0471612811088562,2,-0.4265637819376384,-0.4140201058761241,-0.4011817094686632,-0.6969102317782805,0.2348105162382126,-0.9267479181289673,-0.2932613790035248,-1.573013305664062,-49.99539184570312,5.282196044921875,2
1596230405.084625,10,0,102737.2696875,0.5819792721219178,0.6802094501799688,1.181415888964492,0.120060421526432,0.3541443049907684,-0.2617701292037964,-0.08050176501274109,0.0736967921257019,-0.04992979764938354,2,-0.4234859883093482,-0.4160473584056502,-0.402615000212874,-0.696753416157711,0.2387612164020538,-0.9251444339752197,-0.2951284348964691,-1.891487121582031,-49.97769165039062,5.0908203125,2
1596230405.109185,11,0,102737.2997855,0.5519150659007753,0.7185585111811539,1.182262215292135,0.1800084561109543,0.1620583534240723,-0.1782155185937881,0.01361820101737976,-0.03248441219329834,0.04849469661712646,2,-0.4224342837254196,-0.4230428593253402,-0.4003214807347314,-0.6944974811860962,0.2493853718042374,-0.9254654049873352,-0.2851680219173431,-1.299819946289062,-49.91728210449219,5.571197509765625,2
1596230405.147721,12,0,102737.3298835,0.5497632254302086,0.7187153518737955,1.180088624997827,-0.0887661948800087,-0.1858275681734085,-0.02330677397549152,0.07428830862045288,-0.0541340708732605,0.03784304857254028,2,-0.4219867633166092,-0.4226179949320076,-0.3994553383145347,-0.6955262474802187,0.2507540881633759,-0.9246397614479065,-0.2866424024105072,-1.122245788574219,-49.98351287841797,5.392242431640625,2
1596230405.169752,13,0,102737.3599805,0.5396059952903143,0.7219270269827061,1.180622418592355,0.2254768162965775,-0.1733187288045883,-0.1630377173423767,-0.02287042140960693,0.06776070594787598,-0.1099263429641724,2,-0.4237052478460686,-0.4215938529001219,-0.3966369851234715,-0.6967148760450903,0.2513470649719238,-0.9248429536819458,-0.2854649722576141,-1.149620056152344,-49.99436950683594,5.36993408203125,2
1596230405.20778,14,0,102737.3900785,0.5254420622429162,0.7361925219008872,1.181021787542047,0.05334877967834473,0.264922022819519,-0.09708785265684128,-0.1129023432731628,-0.03363239765167236,-0.04006123542785645,2,-0.4240354954535054,-0.4235629931814138,-0.3947571779979395,-0.6963870907741284,0.2551454901695251,-0.9249947667121887,-0.2815765738487244,-0.838714599609375,-50.01725769042969,5.698455810546875,2
1596230405.229603,15,0,102737.420177,0.5054097735488534,0.7651690429743572,1.178647336030227,0.1656460165977478,0.2668440639972687,-0.4104278087615967,-0.1332089602947235,0.03739583492279053,-0.07016313076019287,2,-0.4216460664683345,-0.4294064526294916,-0.393722846449319,-0.6948430074142166,0.264716774225235,-0.9240899085998535,-0.2756493985652924,-0.7016372680664062,-49.96812438964844,5.90875244140625,2
1596230405.266147,16,0,102737.450275,0.4688774785964914,0.804854628242183,1.172361778624201,0.2397720217704773,0.181179866194725,-0.5150641798973083,-0.07584205269813538,0.051422119140625,-0.08973973989486694,2,-0.4192762446488476,-0.4355822485513287,-0.3887871315466949,-0.6952122166742971,0.2796257734298706,-0.9216694831848145,-0.2689510583877563,0.0356903076171875,-49.95877838134766,5.998016357421875,2
1596230405.291205,17,0,102737.480372,0.4207163963924102,0.8541690854782428,1.167106271597909,0.4599706828594208,0.1028437614440918,-0.5964102745056152,-0.09885987639427185,0.03800487518310547,-0.06159079074859619,2,-0.4182664494556073,-0.4427685119523923,-0.3818026365626892,-0.6951518362666955,0.2961922287940979,-0.919617772102356,-0.258018434047699,0.4202041625976562,-49.71799468994141,6.5386962890625,2
1596230405.325809,18,0,102737.51047,0.3614309735881454,0.9115836346470793,1.162396353010482,0.500920295715332,0.2902874350547791,-0.598477840423584,-0.04420804977416992,0.02580440044403076,-0.05912292003631592,2,-0.4188254615051397,-0.450512692291245,-0.3726174647158758,-0.6948236115191844,0.3139303624629974,-0.9177574515342712,-0.2432470917701721,1.508308410644531,-49.51800537109375,7.504730224609375,2
1596230405.350131,19,0,102737.540568,0.3116635294484592,0.9767512584004957,1.160439848998723,0.5225538611412048,0.7924177050590515,-0.2887777090072632,-0.01519837975502014,0.08254098892211914,-0.1116534471511841,2,-0.4173520980749468,-0.4627865379166834,-0.3687255184253694,-0.6897009259098326,0.3305918574333191,-0.916978657245636,-0.2232916951179504,1.978317260742188,-49.52909088134766,7.8558349609375,2
1596230405.383668,20,0,102737.570665,0.2597598475060088,1.042825793061241,1.163827692104043,0.8695896863937378,0.5186420083045959,-0.2463023364543915,0.07014337182044983,0.06168901920318604,-0.2717096209526062,2,-0.4186793748868701,-0.4743442220628689,-0.3652857288178933,-0.6828406439733845,0.3419278264045715,-0.9183249473571777,-0.1994102746248245,2.499618530273438,-49.25435638427734,9.068206787109375,2
1596230405.410121,21,0,102737.600763,0.1843132673371213,1.124766466314115,1.177020361201832,1.042449355125427,0.2477018088102341,0.1463929861783981,0.1824494302272797,0.07655972242355347,0.05823546648025513,2,-0.4268195926942678,-0.4848382847574619,-0.3594931933431533,-0.6734399903603601,0.346141517162323,-0.9234669208526611,-0.16551373898983,2.637672424316406,-48.90385437011719,10.20541381835938,2
1596230405.444429,22,0,102737.630861,0.1202711159091964,1.193717893261653,1.194950163587717,0.9328315854072571,0.478200763463974,0.2373772412538528,0.1847456693649292,0.0008168220520019531,0.2725325226783752,2,-0.4365257183769981,-0.4918013223189076,-0.3567088538187497,-0.6635778444686466,0.3412717580795288,-0.9301973581314087,-0.135153517127037,2.454269409179688,-48.81695556640625,12.1165771484375,2
1596230405.470414,23,0,102737.660958,0.06487718384950769,1.264725795718494,1.209798856107556,0.6793422698974609,0.8477714657783508,0.2644574642181396,0.07203769683837891,0.04954153299331665,0.1379300951957703,2,-0.4427062065580511,-0.5007973382663481,-0.3574617497353964,-0.6522533237351962,0.336792379617691,-0.9355449676513672,-0.1064264848828316,1.734626770019531,-48.61885070800781,12.99542236328125,2
1596230405.508385,24,0,102737.691056,0.009714810873114202,1.338861625304637,1.224432359949339,0.6230502128601074,0.4654844403266907,0.358608216047287,0.1485806405544281,-0.09838193655014038,-0.1227686405181885,2,-0.4481796106323612,-0.510018098958142,-0.3597263803078745,-0.6400105509426994,0.3303898572921753,-0.9406132698059082,-0.07803314924240112,0.9729461669921875,-48.34330749511719,14.24032592773438,2
1596230405.53049,25,0,102737.721154,-0.0305991814509497,1.386719964121947,1.241034442324092,0.7771286368370056,0.1979296803474426,0.4334748685359955,0.06389456987380981,0.004153966903686523,-0.07829499244689941,2,-0.4551023527101196,-0.5130753494210323,-0.3620067776010429,-0.6313370664226898,0.3183467090129852,-0.946119487285614,-0.05927106738090515,0.4384078979492188,-48.12413787841797,14.85983276367188,2
1596230405.563601,26,0,102737.751251,-0.1010815034680738,1.444525200049893,1.253875806733664,0.6534541845321655,-0.752092182636261,0.2483592182397842,-0.07001322507858276,0.07184231281280518,-0.1489611864089966,2,-0.4666678869775118,-0.5124428109747527,-0.3566447318186685,-0.6264407468408618,0.3091608285903931,-0.9501996040344238,-0.03924689814448357,-0.08428955078125,-47.72663879394531,16.3028564453125,2
1596230405.591784,27,0,102737.781349,-0.1669589208120856,1.490167148713471,1.264351830056833,0.7510361671447754,-0.4178673028945923,0.2629225254058838,-0.2271531522274017,-0.003102898597717285,0.1150298118591309,2,-0.4784287633427023,-0.5088785335326611,-0.3498113575152605,-0.6243240891782463,0.300690621137619,-0.9534121751785278,-0.02429711259901524,-0.146820068359375,-47.50719451904297,17.1007080078125,2
1596230405.624549,28,0,102737.811447,-0.2286080395171398,1.534742950961535,1.266222735660526,0.4995539784431458,-0.4968027770519257,-0.2373904436826706,-0.09976682066917419,0.007965743541717529,-0.03937375545501709,2,-0.4868945714105677,-0.5074730497768885,-0.3418943120809513,-0.6233080533790334,0.2996911108493805,-0.9539749026298523,-0.01080956030637026,-0.3310470581054688,-47.06405639648438,18.1572265625,2
1596230405.651171,29,0,102737.841544,-0.2929476037556896,1.579109916592626,1.260492099128077,0.8119416236877441,-0.7105197906494141,-0.05194215103983879,-0.01709654927253723,-0.003847360610961914,-0.03753840923309326,2,-0.4942706508595888,-0.506917922451424,-0.3309481917004184,-0.623862228026667,0.3053379356861115,-0.9522407054901123,0.002538512693718076,0.7386322021484375,-46.52599334716797,19.07623291015625,2
1596230405.683665,30,0,102737.871642,-0.375940550045472,1.63341572895399,1.256690460260337,0.75227952003479,-0.918368935585022,-0.2010093629360199,0.1742973625659943,0.04559808969497681,0.06013631820678711,2,-0.5055287740304405,-0.5040912391541805,-0.3174054758368186,-0.6241686025053295,0.3083606362342834,-0.9510729908943176,0.01933463662862778,0.9002227783203125,-46.17089080810547,19.89450073242188,2
1596230405.71109,31,0,102737.90174,-0.4428617487780941,1.675606631794944,1.253539375408178,0.74672931432724,-0.6075473427772522,0.2350266575813293,-0.1154131591320038,-0.02901667356491089,0.148061990737915,2,-0.5150611103474912,-0.5010294512137264,-0.3062335773777966,-0.6244216674885535,0.3102492690086365,-0.9500946998596191,0.03263691812753677,1.5460205078125,-45.83924102783203,21.09942626953125,2
1596230405.745999,32,0,102737.931837,-0.5122933557293722,1.732406026876236,1.259347318530791,0.4227585792541504,0.38566854596138,0.07517188787460327,-0.3284502625465393,0.03040528297424316,0.3692314624786377,2,-0.5249939303116856,-0.4990345221702034,-0.3013834749802258,-0.6200919509141893,0.3024455904960632,-0.9518905282020569,0.0493081621825695,1.536941528320312,-45.3262939453125,21.70465087890625,2
1596230405.77125,33,0,102737.961935,-0.5278672197428056,1.769758852481415,1.247877812436621,0.1799450218677521,0.7564811706542969,-0.6326558589935303,-0.2011804282665253,0.02267444133758545,0.1623364686965942,2,-0.5210727772306154,-0.5097491689630242,-0.302345443223502,-0.6141873657813831,0.3110750317573547,-0.948313295841217,0.0627221092581749,1.546058654785156,-45.21534729003906,22.2476806640625,2
1596230405.805112,34,0,102737.992033,-0.5234422202569702,1.790839270846627,1.23136495583623,-0.1438510119915009,1.133168339729309,-0.4061779677867889,0.02007356286048889,0.02785247564315796,0.3168760538101196,2,-0.5136236807597596,-0.5220417182492941,-0.3033244713506281,-0.6096370850743551,0.3249227106571198,-0.9429441690444946,0.07267367839813232,1.635139465332031,-45.09221649169922,22.4619140625,2
1596230405.831522,35,0,102738.02213,-0.4898589892144596,1.798779865048093,1.224710203990724,-0.3328877687454224,1.355122804641724,-0.216877281665802,0.06394943594932556,-0.02374577522277832,0.1280733346939087,2,-0.5022596944627673,-0.5348543256534029,-0.3131649361452408,-0.6029871993281167,0.3304403722286224,-0.9407075643539429,0.0766678974032402,1.386856079101562,-44.92710876464844,22.52597045898438,2
1596230405.866511,36,0,102738.052228,-0.4582149247307037,1.80360930764759,1.22058575756297,-0.3607783913612366,0.8748747706413269,-0.2676270306110382,0.09805634617805481,-0.007548511028289795,-0.01928603649139404,2,-0.4921449697335745,-0.5453183020897633,-0.3224001187463289,-0.5970589498414731,0.3338391482830048,-0.9393004775047302,0.07915744185447693,1.05859375,-45.17327117919922,22.12374877929688,2
1596230405.8918,37,0,102738.082326,-0.4190031718444385,1.793388102598105,1.215400347565212,-0.4526399374008179,1.040193319320679,-0.1750490367412567,0.1066641211509705,0.07254457473754883,0.05538403987884521,2,-0.4820030758534447,-0.5532456379418482,-0.329761143311066,-0.5940117161426421,0.3393770158290863,-0.937508761882782,0.0768154039978981,0.6611785888671875,-45.53101348876953,21.57089233398438,2
1596230405.926028,38,0,102738.112423,-0.3883394891674344,1.79505264967405,1.215902872852628,-0.3490829467773438,0.9327620267868042,-0.01227762550115585,0.1580718159675598,0.001204013824462891,0.05554306507110596,2,-0.4732868876257197,-0.5609253066590424,-0.3393988559177348,-0.5883627011128477,0.3387889862060547,-0.9376835227012634,0.0772753581404686,0.43548583984375,-45.65242004394531,21.177734375,2
1596230405.951958,39,0,102738.142521,-0.3417809749622496,1.772044005561682,1.22015172704496,-0.6847584247589111,0.5050869584083557,0.09345348924398422,0.1037715077400208,-0.03893375396728516,0.07086384296417236,2,-0.4650583998556722,-0.5639613796182067,-0.3491466218381417,-0.5863146058112426,0.3365704417228699,-0.9391514658927917,0.06866350769996643,-0.2569656372070312,-45.74639129638672,20.60739135742188,2
1596230405.985566,40,0,102738.172619,-0.2816230462728433,1.731042153283793,1.227833924351475,-0.8076934218406677,0.5649339556694031,0.1185895204544067,0.1079161763191223,0.02551156282424927,0.1602323055267334,2,-0.4570907242665598,-0.5638230820992531,-0.3599343855446183,-0.5861899504858311,0.3319694995880127,-0.9417626261711121,0.05365679785609245,-0.4229888916015625,-46.13278198242188,19.85720825195312,2
1596230406.012195,41,0,102738.202716,-0.1999077879555646,1.670613647892003,1.233999425335062,-1.092305064201355,0.5710298418998718,0.05408136546611786,0.1603639125823975,-0.09685570001602173,0.286037802696228,2,-0.4466177135703015,-0.5630260315972023,-0.3722775973976529,-0.587318916040379,0.328820139169693,-0.9438180327415466,0.03293138742446899,-1.294326782226562,-46.97866821289062,18.65341186523438,2
1596230406.04538,42,0,102738.232814,-0.05146027295508,1.548164629725456,1.239164270388627,-2.178951263427734,0.8329784870147705,0.1777885407209396,0.1530759930610657,-0.1035765409469604,0.2759984731674194,2,-0.4297379159735421,-0.5582484715915181,-0.3908295370791106,-0.592398558447067,0.3255026340484619,-0.9455122351646423,-0.007367935031652451,-1.468101501464844,-47.26322937011719,17.41033935546875,2
1596230406.075129,43,0,102738.262912,0.1612424830031862,1.387927109540774,1.237765828381014,-2.115756273269653,1.564757227897644,0.183058425784111,-0.2703595161437988,-0.3328449726104736,-0.117956817150116,2,-0.4025487608222255,-0.5551847238948103,-0.4202624604941272,-0.5942253949553888,0.3214574456214905,-0.9450559616088867,-0.05944883450865746,-2.607978820800781,-48.58868408203125,13.5703125,2
1596230406.109215,44,0,102738.293009,0.427403222325562,1.194786384209255,1.206658391552094,-5.874862670898438,4.237846851348877,-1.007737636566162,-0.8409061431884766,-0.9076403975486755,0.2095350027084351,2,-0.360215908820905,-0.552136203076089,-0.4562796258728182,-0.5976611756299006,0.3312623798847198,-0.9344311356544495,-0.1307802200317383,-3.058998107910156,-49.60791015625,8.199493408203125,2
1596230406.132566,45,0,102738.323107,0.8328140471487591,1.102021285866923,1.06002936342455,-8.310285568237305,11.9721040725708,-2.097022771835327,-1.164621829986572,-0.5178195834159851,1.287397742271423,2,-0.2112075692791844,-0.5873350714879493,-0.5393925269262635,-0.5652296009504889,0.4361107647418976,-0.8723698258399963,-0.2208577543497086,-2.238174438476562,-50.33004760742188,1.7491455078125,2
1596230406.16275,46,0,102738.353205,1.24454727708926,1.17304757074178,0.8866502112775159,-9.943602561950684,16.15580368041992,-2.215703248977661,-0.9816707372665405,0.7644838094711304,2.126232147216797,2,0.001131973658221291,-0.6144882925633908,-0.6314438671442741,-0.4729496851528844,0.5826736688613892,-0.7749589681625366,-0.244805708527565,5.2164306640625,-47.45284271240234,-13.47067260742188,2
1596230406.192806,47,0,102738.383302,1.600117349965414,1.44170716108601,0.7169594871872474,-8.891282081604004,17.95531463623047,-4.234874725341797,0.04467087984085083,1.46891188621521,2.150644063949585,2,0.2597781537479412,-0.6196742479615168,-0.6660066983252237,-0.3239661318410264,0.7475349307060242,-0.657095730304718,-0.09703827649354935,13.43279266357422,-43.68769836425781,-17.98196411132812,2
1596230406.227885,48,0,102738.413399,1.939285957980553,1.764460729787476,0.5648986949099711,-9.603553771972656,16.16679763793945,-6.447670459747314,0.792978823184967,0.8682062029838562,2.036313772201538,2,0.5113872807798513,-0.5654744711524602,-0.6249849049679416,-0.1676769950445322,0.8288527727127075,-0.5353302359580994,0.1625566631555557,33.17231750488281,-32.40908813476562,-14.07937622070312,2
1596230406.252996,49,0,102738.443497,2.357875553535179,1.972087820592306,0.4921996110407612,-11.50055694580078,12.58959293365479,-4.767086029052734,1.429196238517761,0.5509389638900757,1.075479745864868,2,0.6960660908939955,-0.4331423645329815,-0.5723637738685455,-0.01671138695389149,0.8112828731536865,-0.4725655317306519,0.3442406356334686,40.5823974609375,-25.28121185302734,-8.492645263671875,2
1596230406.283757,50,0,102738.473594,2.679985482297528,2.137359467515779,0.570396332526435,-6.707320213317871,7.513895988464355,0.9696239233016968,1.706122040748596,0.7201341390609741,-1.439591646194458,2,0.78787687054933,-0.3242400317973557,-0.506010949349014,0.1344294231673591,0.7101738452911377,-0.5399656891822815,0.4517631232738495,45.25486755371094,-17.66567230224609,3.6683349609375,2
1596230406.31309,51,0,102738.503692,2.723549242489019,2.252228381014242,0.6960752303057333,-1.034315347671509,1.932253241539001,3.300711631774902,1.454370021820068,0.8640500903129578,-0.582176685333252,2,0.7997083135097557,-0.319609806252445,-0.459465149902254,0.2172740753451721,0.5959903597831726,-0.6412109136581421,0.4833676218986511,44.05836486816406,-19.50000762939453,7.73699951171875,2
1596230406.346791,52,0,102738.53379,2.680784969643388,2.270816608774795,0.7528855796151644,0.4345864653587341,-1.994730353355408,1.344826102256775,0.3837272524833679,0.1676950454711914,-0.1520504951477051,2,0.7855266216803717,-0.3435149027329206,-0.4579849336670507,0.2349366371889944,0.558110237121582,-0.6837472915649414,0.4701091349124908,41.25112915039062,-24.34467315673828,8.93890380859375,2
1596230406.373323,53,0,102738.563887,2.587902705276995,2.242169804821899,0.7735268294424484,1.585765719413757,-2.601469755172729,3.018744230270386,-1.170291662216187,-0.4122175574302673,0.9399650096893311,2,0.7574769544710052,-0.3856891603621876,-0.4801108871713308,0.2167166410646762,0.560175359249115,-0.6986628770828247,0.4450549185276031,40.81303405761719,-25.41472625732422,7.42852783203125,2
1596230406.406648,54,0,102738.593985,2.475125454497511,2.353582725737718,0.8570408021413618,-1.5653315782547,3.993334770202637,3.633069038391113,-1.380268096923828,0.09301298856735229,1.933407545089722,2,0.7415081710469407,-0.4254687705195394,-0.4554747584418409,0.2483640770440368,0.4641341865062714,-0.7559085488319397,0.4617160856723785,37.91612243652344,-30.50630950927734,6.525604248046875,2
1596230406.433549,55,0,102738.624083,2.481579481127664,2.452509472204267,0.9345033772749384,-1.436098575592041,2.294890880584717,-0.7129905223846436,-0.794395923614502,0.7097718119621277,0.2152934074401855,2,0.7456937670699882,-0.4162429070272725,-0.4226726066147087,0.303365232593886,0.3778214156627655,-0.8043040633201599,0.4586347043514252,35.50019836425781,-32.92302703857422,8.06201171875,2
1596230406.467982,56,0,102738.65418,2.588059162119845,2.405141562130488,0.8769976610200351,0.9927871227264404,0.1000214070081711,-4.479138851165771,1.338138937950134,0.5646295547485352,-0.4566134214401245,2,0.7707926666622485,-0.3778276576570279,-0.4217406243656359,0.2919928661148649,0.4295032024383545,-0.7688224911689758,0.4737501442432404,35.82295227050781,-31.84326171875,9.97406005859375,2
1596230406.493693,57,0,102738.684278,2.674004550383222,2.301840385337925,0.7937144057401208,0.6804759502410889,-1.941116809844971,-1.098327040672302,1.135983467102051,0.2772191762924194,-0.1006468534469604,2,0.7827557744227239,-0.3483835161859544,-0.4475041952636827,0.2562463134658028,0.5220289826393127,-0.7129627466201782,0.4681553542613983,38.36161804199219,-28.88932800292969,10.11944580078125,2
1596230406.52696,58,0,102738.714376,2.601600103386871,2.291510710227222,0.8005838434547123,1.067585349082947,-1.898333072662354,2.826153516769409,0.2465161085128784,-0.3145187497138977,0.09531092643737793,2,0.7657469094574416,-0.3786546516772122,-0.4606940992843698,0.2408594826308984,0.5231450200080872,-0.7177627086639404,0.459495335817337,39.91133117675781,-27.18991851806641,8.12261962890625,2
1596230406.553883,59,0,102738.744473,2.522223074205485,2.328409173311631,0.8519777699695298,-0.54441899061203,0.6278218626976013,1.582664966583252,-0.3571901023387909,-0.1427326202392578,0.2872809171676636,2,0.7467991376081127,-0.4105444123872479,-0.4586713985595871,0.2517238245580293,0.4783831834793091,-0.7525842189788818,0.452511340379715,38.77865600585938,-29.10886383056641,7.360931396484375,2
1596230406.58689,60,0,102738.774571,2.522170445078394,2.37697370760277,0.8726495299102961,-0.1694676280021667,2.45465612411499,-0.3899474740028381,-0.4115631580352783,0.2178251147270203,-0.183357834815979,2,0.7528200886288172,-0.406446323504033,-0.4415312710404808,0.2703947609465934,0.4449853003025055,-0.766034722328186,0.4638733863830566,36.82943725585938,-31.39150238037109,7.42279052734375,2
1596230406.614011,61,0,102738.804669,2.54665303404596,2.442467206723664,0.8675101489958791,-0.4698256254196167,2.927918672561646,-0.2766207158565521,0.2002099454402924,0.06084078550338745,-0.008603692054748535,2,0.7728861741869981,-0.3874936171409579,-0.4128572682681463,0.2864341152579992,0.416200578212738,-0.762721061706543,0.4950086772441864,36.48501586914062,-30.76895904541016,11.006591796875,2
1596230406.648948,62,0,102738.834766,2.544399823191533,2.517282803011486,0.8826652605606666,-0.01552313752472401,1.638519048690796,0.9268204569816589,0.3404676616191864,-0.04508179426193237,-0.246390700340271,2,0.7838208302853577,-0.3785132280371035,-0.3849809609659946,0.3068262044522013,0.371236652135849,-0.7724342942237854,0.5152947306632996,35.86335754394531,-30.99309539794922,12.543212890625,2
1596230406.674232,63,0,102738.864864,2.49774200450114,2.572924383588437,0.8949504352770268,0.08769981563091278,-0.01699617132544518,0.9073439836502075,0.03906112909317017,-0.09187406301498413,-0.08160567283630371,2,0.7824866739020683,-0.3889315872017709,-0.3713110504131361,0.3139662952529579,0.336869090795517,-0.7801780700683594,0.5271063446998596,34.02249145507812,-32.19904327392578,14.3514404296875,2
1596230406.70828,64,0,102738.894962,2.470655178738387,2.596491767649276,0.9101162763979591,-0.1392032504081726,0.1525582075119019,0.6249850392341614,-0.3546406924724579,-0.07633686065673828,-0.106698751449585,2,0.7779066283796249,-0.3965114427171199,-0.3676685446433632,0.3200933827871691,0.3181822299957275,-0.7895750999450684,0.5247200727462769,33.60888671875,-32.82243347167969,14.50186157226562,2
1596230406.734444,65,0,102738.925059,2.452559528603124,2.616057030494737,0.9124338318890679,0.2736746072769165,0.6455175876617432,-0.01131231710314751,-0.4311324954032898,0.2246021032333374,0.00161433219909668,2,0.7773203316295695,-0.4005035833239246,-0.363172094566568,0.3216767161763178,0.3069367408752441,-0.790995180606842,0.5292600393295288,32.81919860839844,-33.57804870605469,14.57928466796875,2
1596230406.767246,66,0,102738.955157,2.458310883855683,2.659169706973006,0.9064441761046766,-0.09749273210763931,1.920899510383606,-0.2949841618537903,-0.2661457359790802,-0.180692195892334,0.2373884916305542,2,0.7875148818341233,-0.391040404203133,-0.3448025530722776,0.3286623108904652,0.2860338091850281,-0.7873163819313049,0.5461845993995667,32.86592102050781,-33.17729949951172,15.50814819335938,2
1596230406.794677,67,0,102738.985255,2.479543498812247,2.681670028044703,0.905691536180713,-0.1505855172872543,0.7303025722503662,-0.4487572610378265,0.1689990162849426,-0.01563566923141479,0.03840529918670654,2,0.7955880328132913,-0.3788746492328838,-0.3322951937295237,0.3362642767377571,0.2739361524581909,-0.7868521213531494,0.5530126094818115,32.01762390136719,-32.92565155029297,17.35342407226562,2
1596230406.824697,68,0,102739.015352,2.484308608823074,2.693546803081019,0.9040702495198063,0.1312005221843719,0.3397813439369202,0.3741729259490967,0.4794833958148956,0.04021841287612915,0.03018355369567871,2,0.7988222294654865,-0.3749280254338756,-0.3266024562847417,0.3385895344652428,0.2679011821746826,-0.7858505249023438,0.557375967502594,31.95118713378906,-32.82917785644531,17.733642578125,2
1596230406.854905,69,0,102739.04545,2.452455297774685,2.720272944496572,0.9125993123599007,-0.1988423019647598,-0.2413169741630554,0.7577468752861023,0.1710195243358612,-0.0313684344291687,0.01355636119842529,2,0.7951220853166366,-0.3832496654464545,-0.3222281061550929,0.3421542238490013,0.2501603960990906,-0.7910963892936707,0.558198869228363,31.38761901855469,-33.09165191650391,18.04379272460938,2
1596230406.886372,70,0,102739.075548,2.439319438231733,2.7140184047327,0.9260036216175793,-0.1807075142860413,-0.9158565402030945,0.03741922229528427,-0.1284799575805664,0.1681398749351501,-0.2391304969787598,2,0.7884025460975503,-0.3897222607362734,-0.3283720687111973,0.3445426247189479,0.2492268830537796,-0.7992243766784668,0.5469240546226501,30.94985961914062,-33.87742614746094,17.49041748046875,2
1596230406.915394,71,0,102739.105645,2.445710246274321,2.681112251853762,0.925219523814142,0.07042226940393448,-0.3120241761207581,-0.09849768131971359,-0.2835836112499237,0.08424204587936401,-0.2165160179138184,2,0.7843401804515262,-0.3928173323634121,-0.3401378086721839,0.3388381858728888,0.2673644721508026,-0.7987528443336487,0.5389899611473083,31.40054321289062,-33.79845428466797,16.34197998046875,2
1596230406.951269,72,0,102739.135743,2.448163059580225,2.699482932825316,0.9235612956137494,-0.1191311702132225,1.3045734167099,-0.262935072183609,-0.3257420659065247,-0.07161659002304077,0.1478686332702637,2,0.7883031814147824,-0.3886919638873849,-0.3323290901903759,0.3421315517812611,0.2579845786094666,-0.7977540493011475,0.5450066924095154,31.75640869140625,-33.72845458984375,16.34796142578125,2
1596230406.975413,73,0,102739.165841,2.483191379173114,2.710661161806041,0.9242827808585585,-0.428045779466629,1.216730952262878,-0.8340988755226135,0.1860032379627228,-0.01781553030014038,0.1386892795562744,2,0.7966297947232202,-0.3728908174482389,-0.3219073491571482,0.3502984228664939,0.2516358494758606,-0.7981889247894287,0.5473331809043884,31.35604858398438,-33.49955749511719,17.47772216796875,2
1596230407.007839,74,0,102739.195938,2.512795800040461,2.715880788137324,0.928497999459901,-0.3286913335323334,0.6811349391937256,0.1020699962973595,0.5512138605117798,0.07071912288665771,0.07901370525360107,2,0.8018872644150645,-0.3602250183427054,-0.3149736110657697,0.3577799310723748,0.2473840862512589,-0.8007211089134216,0.5455704927444458,31.39712524414062,-33.33122253417969,18.14266967773438,2
1596230407.035472,75,0,102739.226036,2.492213705327865,2.747873408142739,0.9416881169790435,-0.106059268116951,0.2033178806304932,0.6586177945137024,-0.01486930251121521,0.1589796543121338,-0.01472103595733643,2,0.8000024225699912,-0.3629014497633389,-0.3071220897522341,0.3660254398445999,0.2257345020771027,-0.8085525631904602,0.5434026718139648,30.75291442871094,-33.43992614746094,18.64083862304688,2
1596230407.068987,76,0,102739.256134,2.482325805299263,2.743458643848963,0.9416208164705517,0.1367580592632294,-0.9533991813659668,-0.3986014723777771,-0.3141036629676819,0.04095840454101562,-0.01578569412231445,2,0.7975307555916891,-0.3676551988280725,-0.310682518901198,0.3636630228995666,0.2281525284051895,-0.8085129857063293,0.5424513220787048,30.49909973144531,-33.77141571044922,18.22677612304688,2
1596230407.095758,77,0,102739.286231,2.511876733682111,2.690232254236935,0.9357089614520399,-0.2025568783283234,-0.8301039934158325,-0.5102452635765076,0.02958777546882629,-0.129238486289978,0.007899284362792969,2,0.7958896856014457,-0.365346300294506,-0.3260206565354638,0.3560788631443415,0.258768767118454,-0.8050198554992676,0.5338366031646729,31.04176330566406,-33.59877777099609,17.71942138671875,2
1596230407.130622,78,0,102739.316329,2.518099030953018,2.6663840813687,0.936483912721331,0.01290628127753735,-0.4504186511039734,0.1408956199884415,-0.1026262938976288,-0.02411240339279175,-0.03722333908081055,2,0.7929049364791706,-0.3671258063871307,-0.3344555905141813,0.353071840108122,0.2711394131183624,-0.8054793477058411,0.5269591808319092,31.95259094238281,-33.34083557128906,16.621826171875,2
1596230407.15581,79,0,102739.346427,2.52638246491277,2.640799833099748,0.9324479557776271,0.006257352419197559,-0.8766083121299744,-0.6259839534759521,-0.1131568551063538,0.08040535449981689,-0.02705991268157959,2,0.7910685376726353,-0.3681841246465242,-0.3428113161065222,0.3480391482048,0.2860895097255707,-0.8030810356140137,0.5226979851722717,31.94932556152344,-33.22565460205078,16.44058227539062,2
1596230407.185979,80,0,102739.376524,2.548941647531219,2.602694344496807,0.9219826427471812,0.1848265677690506,-0.3707503378391266,-0.2365884780883789,0.1261859536170959,-0.05034959316253662,0.008002758026123047,2,0.7910919517428215,-0.3653438395135927,-0.3532300903264229,0.3404789446002433,0.3100911974906921,-0.7968012094497681,0.5186051726341248,33.10610961914062,-32.37114715576172,15.74722290039062,2
1596230407.216042,81,0,102739.40662225,2.5490470522036,2.587088963084231,0.9192959940125015,-0.03429904580116272,-0.5509854555130005,-0.119100533425808,-0.04638907313346863,0.08511745929718018,0.09444177150726318,2,0.7889762365617742,-0.3678002441603163,-0.3591923375909849,0.3364821640731703,0.319271981716156,-0.7951748967170715,0.5155210494995117,33.53598022460938,-32.39980316162109,15.31942749023438,2
1596230407.24818,82,0,102739.43672025,2.560327068148418,2.561525071365966,0.9098434773799506,0.3276569247245789,-0.8941500186920166,-0.5610366463661194,-0.09529551863670349,0.1724571585655212,0.007102727890014648,2,0.7886700342829149,-0.3670527226569624,-0.3667778386812703,0.3297665904112742,0.336449921131134,-0.7894076704978943,0.5134562253952026,34.02287292480469,-31.92975616455078,14.77078247070312,2
1596230407.276305,83,0,102739.46681725,2.571637861191318,2.511546720323826,0.8889068623652637,0.6110975742340088,-1.638959646224976,-0.5248080492019653,0.1307386159896851,0.07191359996795654,0.1080145835876465,2,0.7863417094630035,-0.3691779185994777,-0.3833837700621029,0.3136738131525434,0.3713383972644806,-0.7763832211494446,0.5092512369155884,34.94717407226562,-31.42742156982422,14.39077758789062,2
1596230407.30969,84,0,102739.49691525,2.56205584945276,2.467126857193774,0.8658489181927357,0.8055964708328247,-1.868652701377869,-0.06598798930644989,0.09418627619743347,0.08422702550888062,0.2863551378250122,2,0.7812381874884146,-0.3777852480044313,-0.4009494552125882,0.2935724727172777,0.4046593606472015,-0.7616456151008606,0.5061095952987671,36.26960754394531,-30.38504028320312,12.5511474609375,2
1596230407.336461,85,0,102739.52701325,2.535271106995692,2.396511493258393,0.8381006735891616,1.395206570625305,-4.351397037506104,-0.3779800534248352,0.05424290895462036,0.04876917600631714,0.04054832458496094,2,0.7678030484075015,-0.3953496400834264,-0.4304680486946776,0.2624392234637938,0.4535188674926758,-0.7433740496635437,0.4916457235813141,36.73637390136719,-30.137939453125,11.51712036132812,2
1596230407.367686,86,0,102739.55711025,2.495871207180802,2.272870910450549,0.7947880367575811,1.873221516609192,-5.453585624694824,-0.2684892416000366,0.2019550800323486,-0.007142543792724609,0.2082549333572388,2,0.7415553023816854,-0.4198423121127155,-0.4793775804587532,0.2098219578236963,0.5347856879234314,-0.713715136051178,0.4523436725139618,38.45033264160156,-29.14023590087891,6.692108154296875,2
1596230407.39673,87,0,102739.58720825,2.425942566112083,2.149872207064917,0.760624206209664,2.209855079650879,-6.032735347747803,0.3298496305942535,-0.30085289478302,-0.07519662380218506,0.1962343454360962,2,0.7031259882509433,-0.4514750196577679,-0.5281632849298783,0.1510886403464734,0.6063051819801331,-0.6893737316131592,0.3964316844940186,39.09092712402344,-28.81977081298828,3.50482177734375,2
1596230407.43054,88,0,102739.61730625,2.330521631161256,2.020310131978733,0.723722885197123,3.066250801086426,-6.815972805023193,-0.3562545478343964,-0.5294758081436157,-0.08991432189941406,0.0339200496673584,2,0.6535611168404127,-0.4854519503041923,-0.5752420528430782,0.07931486961701775,0.6749045848846436,-0.6621789932250977,0.3256114721298218,38.82005310058594,-28.94398498535156,-3.32916259765625,2
1596230407.456914,89,0,102739.64740325,2.210523568354525,1.898446448968255,0.6708999431200745,3.928466558456421,-6.2841477394104,-0.3258076310157776,0.07731783390045166,0.1062590479850769,0.009527206420898438,2,0.5999068525331925,-0.5158935422093202,-0.6114788919740328,-0.007688604243371894,0.7415937781333923,-0.621691107749939,0.2520687580108643,38.19169616699219,-29.31466674804688,-6.84027099609375,2
1596230407.488688,90,0,102739.67750125,2.056981986256138,1.798235137325392,0.638710316231014,4.331756114959717,-6.789577007293701,0.4805462956428528,0.4046381115913391,0.136303722858429,0.2278945446014404,2,0.5357310210215942,-0.5509160682700402,-0.6329016077333807,-0.09444182955779684,0.7821890711784363,-0.5961604714393616,0.1810324788093567,35.66337585449219,-30.48900604248047,-12.11773681640625,2
1596230407.516993,91,0,102739.70759925,1.887505594717065,1.671004280629762,0.645879780651336,4.618921279907227,-8.405783653259277,1.505599856376648,-0.1279407143592834,-0.2017645239830017,0.2903932332992554,2,0.4445945395853718,-0.5850472776972888,-0.6532147756736884,-0.1826628532164872,0.7945642471313477,-0.6019012331962585,0.07988924533128738,30.49003601074219,-34.13768768310547,-16.72036743164062,2
1596230407.550857,92,0,102739.73769625,1.703211589004483,1.524543551565,0.6911401510193657,4.735608577728271,-8.65280818939209,1.553006649017334,-0.4808153510093689,-0.06023555994033813,0.4056069850921631,2,0.3274292984945393,-0.6123537111161445,-0.6660746189027958,-0.2723189786627305,0.7696957588195801,-0.6374161243438721,-0.03562597557902336,26.16014862060547,-36.97907257080078,-18.41058349609375,2
1596230407.577293,93,0,102739.76779425,1.522749158276049,1.393631159532849,0.7508445325674783,4.885951042175293,-7.925631046295166,1.51037859916687,-0.1233741044998169,0.3439353108406067,0.3429073691368103,2,0.2083847325372766,-0.6262189745767233,-0.662584794419662,-0.3541283646878927,0.7196689248085022,-0.6822564601898193,-0.1288512051105499,17.30816650390625,-41.67124938964844,-18.88967895507812,2
1596230407.607268,94,0,102739.79789125,1.31573706780955,1.315474617598227,0.8335710248577751,5.454267501831055,-7.153235912322998,1.58004367351532,-0.03464996814727783,0.02699881792068481,0.2606129050254822,2,0.0882809577379576,-0.6382143815199574,-0.6382812501133079,-0.4212906694872572,0.6504436731338501,-0.7403366565704346,-0.1697777509689331,13.17042541503906,-44.20536041259766,-17.09573364257812,2
1596230407.637416,95,0,102739.82798925,1.109902729725626,1.242935131942292,0.9104985539501721,4.463365077972412,-8.425868988037109,0.8640876412391663,0.08623528480529785,-0.1527425050735474,0.4643987417221069,2,-0.02829527218157599,-0.6328063798086138,-0.6023334992043101,-0.4857466048189203,0.5806807279586792,-0.7898096442222595,-0.1975109279155731,6.443588256835938,-47.91033172607422,-11.59170532226562,2
1596230407.667513,96,0,102739.85808725,0.9169556279438223,1.135662868376349,0.987863331508,4.578691482543945,-8.52001953125,1.367865681648254,0.06583708524703979,0.1234593391418457,-0.0217936635017395,2,-0.1488403538682231,-0.6015191919106517,-0.5571681099053667,-0.5527972624552397,0.4991781413555145,-0.8348516821861267,-0.2320424169301987,3.828323364257812,-49.04482269287109,-8.432647705078125,2
1596230407.697661,97,0,102739.88818425,0.7227912750801153,1.077759330657174,1.104008321784641,4.466292381286621,-6.699089050292969,2.527529239654541,-0.3148081302642822,0.2468111515045166,0.2455062866210938,2,-0.2665077042983732,-0.5678693468738689,-0.5101220797126458,-0.588450100200456,0.3964226245880127,-0.893018364906311,-0.2129960954189301,-1.012489318847656,-50.13034057617188,-0.5723876953125,2
1596230407.729135,98,0,102739.91828225,0.5716528546571427,1.032259535656535,1.220827604895903,2.522740364074707,-5.432929992675781,1.740300059318542,-0.7687051892280579,-0.5438071489334106,0.1515946388244629,2,-0.3642930004002417,-0.5285502678434096,-0.4723485212188533,-0.6039967310452223,0.2943387627601624,-0.9393834471702576,-0.1758504509925842,-3.462142944335938,-50.27547454833984,3.336395263671875,2
1596230407.757811,99,0,102739.94838025,0.5321465954894096,0.9604936606170087,1.258128333775879,-0.05022461339831352,-1.309128761291504,0.2772147953510284,-1.115064859390259,-0.4790336489677429,-0.3678123354911804,2,-0.4052414277636309,-0.4976291152023509,-0.4508299378589176,-0.6204006383364347,0.2520689070224762,-0.9515162706375122,-0.1762893050909042,-5.268203735351562,-49.71096038818359,7.428863525390625,2
1596230407.78975,100,0,102739.97847825,0.5272265247948019,1.010790084548806,1.259282790490481,0.5563895106315613,3.902952909469604,-0.3694514036178589,-0.6853582859039307,0.2499175667762756,-0.08096897602081299,2,-0.3954749582251487,-0.5120494086779851,-0.4595217327683192,-0.6084773370030219,0.2596822381019592,-0.9518707394599915,-0.1628099232912064,-5.359085083007812,-49.59654998779297,7.706390380859375,2
1596230407.818202,101,0,102740.00857525,0.4257341059554324,1.232412876603192,1.245340727009349,0.7155634760856628,3.694609880447388,-1.325105547904968,0.06822514533996582,0.3324525356292725,0.5878318548202515,2,-0.3660156064209599,-0.5594297928957913,-0.4695031044261292,-0.5767474046193424,0.3016084432601929,-0.9475051760673523,-0.1061417683959007,-5.368408203125,-49.16666412353516,8.2706298828125,2
1596230407.848036,102,0,102740.03867325,0.3282965619480286,1.392874905849699,1.220253620032002,1.058259248733521,0.57643723487854,-0.2999316453933716,0.9580329060554504,-0.181732177734375,0.2493075728416443,2,-0.3477228117935777,-0.5905082763072981,-0.4653551153421812,-0.5602082668776691,0.3379860520362854,-0.9391864538192749,-0.06077764183282852,-4.824905395507812,-49.33634185791016,8.578094482421875,2
1596230407.878245,103,0,102740.06877025,0.2537038081056168,1.444416248283726,1.249332295984117,0.8383851051330566,-1.232085824012756,1.701566696166992,0.6753160953521729,-0.284959077835083,0.06948333978652954,2,-0.3674603242817008,-0.5874187385600899,-0.460491105273511,-0.5548512730763324,0.3134356439113617,-0.9487738609313965,-0.03982426971197128,-4.845558166503906,-49.12687683105469,10.37103271484375,2
1596230407.908616,104,0,102740.09886825,0.1931831331126661,1.448961366399974,1.309417427918574,0.7375684380531311,-2.366056442260742,1.694013357162476,-0.6778116822242737,-0.05815804004669189,-0.1054013967514038,2,-0.4031665342561766,-0.5672334751919419,-0.4589704664226477,-0.5523123923183466,0.2564970850944519,-0.9660345911979675,-0.03140585869550705,-6.158096313476562,-48.81878662109375,11.25225830078125,2
1596230407.938367,105,0,102740.12896625,0.1271679849715411,1.4778823354324,1.328756903524427,0.4688414335250854,0.7084254026412964,-0.6571571826934814,-0.6066501140594482,0.1438067555427551,0.402929425239563,2,-0.4211436831693454,-0.5581389303799023,-0.4514025309500027,-0.5543957394766158,0.2386490404605865,-0.9708511829376221,-0.02223786525428295,-7.87957763671875,-48.4228515625,13.03591918945312,2
1596230407.971199,106,0,102740.15906325,0.08460044749972344,1.55725350899597,1.297444875204622,0.2789446711540222,0.9662771224975586,-0.9339468479156494,-0.199213981628418,-0.06780332326889038,-0.03910863399505615,2,-0.4060445675706733,-0.5773212823032837,-0.4479184901192257,-0.5488138856286109,0.2699341475963593,-0.9628715515136719,-0.003655892331153154,-6.776344299316406,-48.83916473388672,13.45748901367188,2
1596230407.99859,107,0,102740.18916125,0.0474089830502542,1.608961862560848,1.283794615703861,0.3382054269313812,0.2205198854207993,-0.1115462854504585,0.2540268301963806,-0.08328735828399658,0.03246498107910156,2,-0.4014063708540635,-0.5867482546661138,-0.4444020631386532,-0.5450743889193193,0.2828712463378906,-0.9590969085693359,0.01080117747187614,-6.546714782714844,-48.34409332275391,13.84326171875,2
1596230408.029591,108,0,102740.21925925,0.02954448774348856,1.622441018556579,1.281251672918072,0.03880487382411957,-0.3900216519832611,-0.08083279430866241,0.316628485918045,0.06113624572753906,0.245087742805481,2,-0.4029502169758831,-0.5873674467627916,-0.4415152670498605,-0.545614041948397,0.285134494304657,-0.9583739638328552,0.01473878975957632,-6.246589660644531,-48.17619323730469,14.27374267578125,2
1596230408.059008,109,0,102740.24935625,0.03301984381555382,1.601094232808289,1.282451629398416,0.03986538201570511,-0.9417383074760437,0.2403641641139984,0.2031911015510559,-0.08352172374725342,-0.05444443225860596,2,-0.4069676221318645,-0.5819660928634363,-0.4384884611389891,-0.5508362859611486,0.284234881401062,-0.9587159156799316,0.008614357560873032,-5.988822937011719,-48.33495330810547,14.4217529296875,2
1596230408.090142,110,0,102740.27945425,0.01866870634207088,1.577305294830062,1.293706860070422,0.1035005524754524,-1.290718674659729,0.3531146943569183,-0.1363368630409241,-0.001909136772155762,-0.003129243850708008,2,-0.4194663182533727,-0.5700335863566761,-0.4327738160555649,-0.558405368393522,0.2735515534877777,-0.9618557095527649,0.001780563499778509,-6.091377258300781,-48.31516265869141,14.64035034179688,2
1596230408.119086,111,0,102740.30955225,0.003110582250126873,1.566292641483924,1.294306146037463,0.2580757141113281,-0.4257074594497681,-0.3437203764915466,-0.1896189749240875,0.1534079909324646,0.07185196876525879,2,-0.4264101093508909,-0.5635243658932745,-0.4262448626748609,-0.5647388894972662,0.2729780077934265,-0.9620195031166077,-0.001229415414854884,-5.853279113769531,-48.00668334960938,14.9454345703125,2
1596230408.149133,112,0,102740.33964925,-0.02735430968908144,1.584262707409038,1.282528381955105,0.1922160983085632,-0.4986508786678314,-0.2896271049976349,0.00708460807800293,-0.08534616231918335,0.08235001564025879,2,-0.4279023239865625,-0.5646359278465706,-0.418099272994136,-0.5685759970968055,0.2842655777931213,-0.9587377309799194,0.003828259883448482,-5.060745239257812,-47.99747467041016,15.40878295898438,2
1596230408.179146,113,0,102740.36974725,-0.02275918389874419,1.55906944882668,1.27980155941243,-0.1070089936256409,-0.8330973982810974,0.05382345616817474,0.07555001974105835,0.003433346748352051,0.02334165573120117,2,-0.4310821015245105,-0.5590044790642481,-0.4132222913633534,-0.5752648048894087,0.2868857383728027,-0.9579589366912842,-0.003364428179338574,-4.713882446289062,-48.05908966064453,15.39599609375,2
1596230408.209266,114,0,102740.399846125,-0.02028057290543352,1.53493131965263,1.282532532059545,-0.02951379120349884,-0.4566321074962616,0.07496810704469681,-0.150727242231369,0.02651715278625488,0.2346401214599609,2,-0.4361354274653064,-0.5519863970566351,-0.4094765368866879,-0.5808837281885713,0.2841053903102875,-0.9587389230728149,-0.01019381266087294,-4.243576049804688,-48.05783081054688,15.57275390625,2
1596230408.239286,115,0,102740.429943125,0.02035071078215831,1.49290724230813,1.280340823734033,-0.8361129760742188,0.133362352848053,-0.1620700359344482,-0.2838756442070007,-0.06179350614547729,0.5263139605522156,2,-0.432938512280966,-0.549019341863164,-0.4115817198925273,-0.5845874872280062,0.2855205237865448,-0.9581135511398315,-0.0222840141505003,-4.095993041992188,-47.89456939697266,15.398193359375,2
1596230408.269766,116,0,102740.460041125,0.1114834277656698,1.414557316579982,1.270232653262792,-0.8797851204872131,0.3256618678569794,-0.3311454653739929,-0.1955803632736206,0.06209969520568848,0.2165138125419617,2,-0.421123097594286,-0.547376815002764,-0.4189809429193376,-0.5894818582967725,0.2924523055553436,-0.9551697373390198,-0.04606791958212852,-3.90228271484375,-48.26447296142578,13.68670654296875,2
1596230408.299509,117,0,102740.490139125,0.1800109827832751,1.348222764571434,1.252595816928139,-0.5688013434410095,-0.4377529919147491,-0.4915002882480621,0.08007121086120605,0.03929203748703003,-0.3939231634140015,2,-0.410625378516791,-0.5448454511812548,-0.4212900890822402,-0.5975324330332746,0.3051408529281616,-0.9497999548912048,-0.06906046718358994,-3.729133605957031,-48.71094512939453,13.05609130859375,2
1596230408.329638,118,0,102740.520236125,0.2094844839178551,1.314180058895607,1.237374408698613,-0.4372041523456573,0.2889982461929321,-0.3476828634738922,0.3923324644565582,0.03427761793136597,0.03953897953033447,2,-0.4046609986262629,-0.5428778967764444,-0.4197473728699986,-0.6044378107612687,0.3165610730648041,-0.9449279308319092,-0.08306612819433212,-2.630599975585938,-49.07835388183594,12.0335693359375,2
1596230408.359804,119,0,102740.550334125,0.2716933019974195,1.258724659725441,1.226940233695039,-0.9906677603721619,-0.5858058929443359,0.1910537332296371,0.2965984642505646,-0.06736493110656738,-0.03410285711288452,2,-0.3959350330018057,-0.5398910878481616,-0.4252749127939314,-0.6090108117782908,0.3208365440368652,-0.9414616823196411,-0.1035061255097389,-2.356651306152344,-49.21409606933594,11.5009765625,2
1596230408.389833,120,0,102740.580432125,0.3417202607313427,1.156742753238723,1.229864757556864,-0.4963715076446533,-1.070970058441162,0.32651486992836,0.1277333498001099,0.07587254047393799,-0.006187379360198975,2,-0.4001165308113874,-0.5221544381725596,-0.4270723011386052,-0.6203795107625383,0.3061104416847229,-0.9424436092376709,-0.1345230042934418,-2.425514221191406,-49.47737884521484,10.11517333984375,2
1596230408.419869,121,0,102740.610529125,0.416793534598846,1.072035587621295,1.228010152872367,-1.001849889755249,-0.3754880726337433,0.3934021592140198,-0.03924298286437988,0.01034688949584961,0.04410427808761597,2,-0.3982602192513223,-0.5108827492520359,-0.4332661724572046,-0.6266322917642977,0.2951658964157104,-0.9418218731880188,-0.1607752293348312,-2.577781677246094,-49.58634185791016,9.490570068359375,2
1596230408.450027,122,0,102740.640627125,0.491192774354952,0.9863916338774267,1.225052936711141,-0.5091373920440674,-0.4267084300518036,0.2374998182058334,-0.06893312931060791,0.03980731964111328,-0.1575393080711365,2,-0.3970384225963456,-0.4988742839406119,-0.4392564205458063,-0.6328812117504671,0.2826529741287231,-0.9408237934112549,-0.1869698762893677,-3.137710571289062,-49.95847320556641,7.86822509765625,2
1596230408.4802,123,0,102740.670725125,0.5402037328005445,0.9301896369590837,1.221927185317046,-0.5183749198913574,-0.3679303824901581,0.2420689761638641,-0.1641051769256592,0.04980701208114624,0.06422877311706543,2,-0.3961078389856671,-0.4908608105123234,-0.4433047778770934,-0.6368947370051905,0.2740603387355804,-0.9397599101066589,-0.204308494925499,-3.57598876953125,-49.99629974365234,6.9700927734375,2
1596230408.510237,124,0,102740.700822125,0.5852847412272344,0.8731644161492403,1.215815255772525,-0.5807382464408875,-0.4951521158218384,0.02042833343148232,-0.225841760635376,-0.02254980802536011,-0.0213969349861145,2,-0.3954439292433798,-0.4816461409231553,-0.4458292654764181,-0.642555290581033,0.2663675844669342,-0.9376530647277832,-0.2232821881771088,-3.557685852050781,-50.19779205322266,6.574951171875,2
1596230408.540355,125,0,102740.730920125,0.6152434879989541,0.8394023063662449,1.200965490676969,-0.5555917620658875,0.05777215212583542,-0.1816227734088898,-0.2079082131385803,0.01705098152160645,0.07230591773986816,2,-0.3899785552644967,-0.4766619217872463,-0.4475797897511024,-0.6483690093181267,0.2690126001834869,-0.9323884844779968,-0.2414202839136124,-3.518623352050781,-50.21825408935547,5.367156982421875,2
1596230408.570411,126,0,102740.761018125,0.635122721978765,0.8186998251597492,1.190050323181696,-0.2646821141242981,-0.3352806270122528,-0.1617341935634613,-0.246724009513855,0.06531822681427002,-0.1742551922798157,2,-0.3855869795401248,-0.4736929888454048,-0.4491644219712534,-0.6520650602978115,0.2713733911514282,-0.9283876419067383,-0.2538752555847168,-3.543647766113281,-50.16416168212891,4.648681640625,2
1596230408.600585,127,0,102740.791115125,0.6261643989598688,0.8227382104949819,1.173065932134837,-0.4368341565132141,0.1989597082138062,-0.7045360207557678,0.16040900349617,-0.002494275569915771,0.01890784502029419,2,-0.3800702943839561,-0.4730892805540025,-0.4456733058799867,-0.6581097326757168,0.2839149534702301,-0.9219424724578857,-0.2634662091732025,-2.879722595214844,-50.16275024414062,4.02777099609375,2
1596230408.631356,128,0,102740.821213125,0.6361466682178342,0.8201353535636569,1.155859127670191,-0.3893107771873474,-0.08309951424598694,0.1268253177404404,0.02696859836578369,-0.02937662601470947,-0.05341559648513794,2,-0.3714388777232456,-0.4738569545902738,-0.4470963745792432,-0.6615115109245163,0.2947857081890106,-0.9151416420936584,-0.2749854922294617,-2.413589477539062,-50.21902465820312,3.828857421875,2
1596230408.660808,129,0,102740.851311125,0.6494633343146136,0.7950504840268831,1.152582430298352,-0.1220352798700333,-0.5818160772323608,-0.3044861853122711,-0.04036492109298706,0.1130632162094116,-0.1588566303253174,2,-0.3725990630700905,-0.4679469152681826,-0.446595667280148,-0.6653930528022876,0.2899349927902222,-0.9138157963752747,-0.2843912541866302,-2.370140075683594,-50.28606414794922,3.146575927734375,2
1596230408.690816,130,0,102740.881408125,0.6323268548014614,0.8026117651855731,1.139151813855109,-0.1942365318536758,0.07292424887418747,-0.3612645864486694,0.2452662587165833,-0.04052877426147461,0.0496944785118103,2,-0.3695460325925529,-0.4670003178881262,-0.4412456632868468,-0.6713037045984329,0.3008769154548645,-0.9082789421081543,-0.2906928658485413,-2.106590270996094,-50.43312835693359,3.113739013671875,2
1596230408.72124,131,0,102740.911506125,0.6515025467196539,0.7930081705110144,1.134149298735706,-0.4223489165306091,0.2546838521957397,0.3825877606868744,0.03099584579467773,-0.02607524394989014,0.1366786360740662,2,-0.3651883115150328,-0.4671838730480991,-0.4455297297647778,-0.6707308434552304,0.3013047575950623,-0.9061747193336487,-0.296753466129303,-1.613128662109375,-50.32481384277344,2.6583251953125,2
1596230408.751042,132,0,102740.941604125,0.6773456652770032,0.7685629966868275,1.132108160574122,-0.1417126953601837,-0.2396074831485748,-0.1586668342351913,-0.1399108171463013,0.03983521461486816,-0.04803401231765747,2,-0.3638241061581609,-0.4636298677504202,-0.4496001266221048,-0.6712220872409499,0.2952464818954468,-0.9053096175193787,-0.3053587377071381,-1.838821411132812,-50.29589080810547,2.29541015625,2
1596230408.781187,133,0,102740.971701125,0.6693869863957717,0.7675482488729229,1.120026386279485,-0.4107848405838013,-0.3230710625648499,-0.2988219559192657,0.09990403056144714,-0.02182996273040771,-0.07609075307846069,2,-0.3610223404209424,-0.4614211957708187,-0.4459154512411529,-0.6766925502221075,0.3025096952915192,-0.9001119136810303,-0.313506692647934,-1.676620483398438,-50.38182830810547,1.9365234375,2
1596230408.811278,134,0,102741.001799125,0.6906802615191224,0.7428386196610887,1.112962686503811,-0.178393691778183,-0.06381548196077347,0.3311737775802612,0.01141083240509033,0.02301692962646484,-0.08111554384231567,2,-0.3588035208401171,-0.4565961339114659,-0.4482278279042689,-0.6796114453117287,0.2989644706249237,-0.8970121741294861,-0.3255600035190582,-1.63873291015625,-50.23675537109375,1.50018310546875,2
1596230408.841361,135,0,102741.031897125,0.7026347306738795,0.7239295949562745,1.114807629157274,-0.06316310167312622,-0.4925104677677155,-0.1334120035171509,-0.1425454616546631,0.0477069616317749,-0.07273507118225098,2,-0.3610750847609733,-0.452402238836937,-0.4489988908646669,-0.6807031386047365,0.2916586101055145,-0.897826075553894,-0.329914003610611,-1.781410217285156,-50.17598724365234,1.258514404296875,2
1596230408.87145,136,0,102741.061994125,0.6940481630274717,0.7157345372809145,1.107683956765083,-0.1102045327425003,-0.5117653608322144,-0.1648144572973251,0.03659188747406006,-0.04706430435180664,-0.1055852770805359,2,-0.3619496045095913,-0.4477017834576446,-0.4441826815876211,-0.6864818546118174,0.2931348085403442,-0.8946664333343506,-0.3371112048625946,-1.840950012207031,-50.34342956542969,1.05255126953125,2
1596230408.90155,137,0,102741.092092125,0.6972442006534103,0.6993897639453729,1.105761325007322,-0.124308168888092,-0.4217109382152557,0.07133961468935013,-0.03126263618469238,0.01822572946548462,0.0745396614074707,2,-0.3640793347645149,-0.4425605350760379,-0.442210943074369,-0.6899535325419746,0.2886926829814911,-0.8938058614730835,-0.3431728184223175,-1.2677001953125,-49.99046325683594,0.704193115234375,2
1596230408.931568,138,0,102741.122190125,0.7073736177654876,0.6803942422076892,1.101601505251674,-0.1829172074794769,-0.1905926465988159,-0.0604640431702137,-0.1705256104469299,0.03897106647491455,0.0392451286315918,2,-0.3643576677755023,-0.4376102802073684,-0.4420446900307556,-0.693063570166226,0.2844587564468384,-0.8919326663017273,-0.3514814674854279,-1.480133056640625,-50.04287719726562,0.63568115234375,2
1596230408.962094,139,0,102741.152287125,0.7016936733670642,0.6863551783224466,1.095865615481075,-0.08552320301532745,0.2187146544456482,-0.2690227031707764,-0.03716239333152771,0.003963470458984375,-0.005517125129699707,2,-0.3619495629078312,-0.438322745977511,-0.4408741208748457,-0.6946190143791547,0.2897862493991852,-0.889324426651001,-0.3537313640117645,-1.431182861328125,-50.01457977294922,0.328125,2
1596230408.991794,140,0,102741.182385125,0.6969954923002328,0.6977225149627548,1.089522826775366,-0.08452580869197845,0.1505821496248245,-0.0763586238026619,0.02637177705764771,0.02880692481994629,0.01871895790100098,2,-0.3578901085005805,-0.441077806271075,-0.4409552895556943,-0.6949269238067715,0.2974066138267517,-0.8864061236381531,-0.3547300696372986,-1.001708984375,-50.11734008789062,0.13958740234375,2
1596230409.021839,141,0,102741.212483125,0.6952882283549437,0.7007609268120656,1.089016001722921,0.03215979784727097,-0.02193741872906685,-0.0329003632068634,-0.04785829782485962,-0.005687236785888672,0.05362629890441895,2,-0.3573903288887169,-0.4418009296887188,-0.4408777278188541,-0.6947740051678402,0.2987727224826813,-0.8861714005470276,-0.354168176651001,-0.924468994140625,-50.08133697509766,0.3646240234375,2
1596230409.051892,142,0,102741.242580125,0.6953062475330216,0.7008752640028625,1.086673832144506,-0.1791718453168869,0.05713123828172684,-0.07479022443294525,-0.05451947450637817,-0.04295307397842407,0.0726088285446167,2,-0.3564053883312231,-0.4417189008899698,-0.4407749734787123,-0.6953969431410731,0.3001507818698883,-0.8850837349891663,-0.3557192087173462,-0.9464874267578125,-50.22049713134766,0.213958740234375,2
1596230409.082243,143,0,102741.272678125,0.6949877186335651,0.7042117827168617,1.080196161578262,-0.0505545437335968,0.05674739554524422,-0.1727430075407028,0.1109180152416229,0.08019262552261353,-0.1258299350738525,2,-0.3530948068107398,-0.4424761632965107,-0.4408922216312386,-0.6965291468955002,0.3050415813922882,-0.8820502758026123,-0.3590778112411499,-0.8193817138671875,-50.15987396240234,-0.07464599609375,2
1596230409.112147,144,0,102741.302775125,0.6885592683670704,0.7072443280260722,1.082150590818643,0.236044853925705,-0.2227848023176193,0.124621294438839,0.1440480649471283,0.06025004386901855,-0.1274420619010925,2,-0.3546483593719063,-0.4424981076537229,-0.4393021006718942,-0.6967305663213529,0.3050083816051483,-0.8829693794250488,-0.3568399250507355,-0.6932220458984375,-50.14596557617188,-0.15447998046875,2
1596230409.142367,145,0,102741.332873125,0.6893647039345006,0.7001717780646337,1.091409947180566,0.1732515096664429,-0.2255243510007858,0.2235750108957291,0.00140845775604248,-0.05177676677703857,0.04884845018386841,2,-0.3598033127769489,-0.4406599596359068,-0.4388457807877716,-0.6955391557231643,0.2971961796283722,-0.887278139591217,-0.3527207374572754,-0.6667404174804688,-49.99627685546875,0.114898681640625,2
1596230409.172461,146,0,102741.362971125,0.6913990968415371,0.6907499058239128,1.093297780602691,0.1385172605514526,-0.2010059356689453,-0.04298786446452141,-0.05014246702194214,-0.008765578269958496,0.01348042488098145,2,-0.3621919070212209,-0.4378473908273111,-0.4379559497695066,-0.6966355627762719,0.2927919328212738,-0.8881472945213318,-0.3542133569717407,-0.9710235595703125,-50.37213134765625,0.541961669921875,2
1596230409.202538,147,0,102741.393068125,0.6851177511314683,0.696959729623334,1.089335011480719,-0.0629747062921524,0.2463067471981049,-0.1360821127891541,0.02107536792755127,-0.02336007356643677,0.08850616216659546,2,-0.3605931753264999,-0.4386687753772366,-0.4366724314718975,-0.6977531521639881,0.2972428500652313,-0.8863191604614258,-0.3550845384597778,-1.059272766113281,-50.26631164550781,0.72772216796875,2
