loggingTime,loggingSample,identifierForVendor,motionTimestamp_sinceReboot,motionYaw,motionRoll,motionPitch,motionRotationRateX,motionRotationRateY,motionRotationRateZ,motionUserAccelerationX,motionUserAccelerationY,motionUserAccelerationZ,motionAttitudeReferenceFrame,motionQuaternionX,motionQuaternionY,motionQuaternionZ,motionQuaternionW,motionGravityX,motionGravityY,motionGravityZ,motionMagneticFieldX,motionMagneticFieldY,motionMagneticFieldZ,motionMagneticFieldCalibrationAccuracy
1596230436.146759,1,0,102768.3302871667,0.7479354852339313,0.5814486579870967,1.07527408533034,0.03433150798082352,-0.1097542569041252,-0.003344100434333086,-0.006963729858398438,-0.0592491626739502,-0.03272008895874023,2,-0.3667668939118271,-0.4084187158289674,-0.4372552925032877,-0.7123789349441338,0.2611562609672546,-0.8797205090522766,-0.397352397441864,-1.496040344238281,-50.3531494140625,-0.96832275390625,2
1596230436.169339,2,0,102768.3603851667,0.750377876568468,0.5762497020474158,1.075670882369613,0.04040545597672462,-0.0468062050640583,0.04197710007429123,0.0282701849937439,0.06014370918273926,-0.003767967224121094,2,-0.3675681043284831,-0.4070473879994846,-0.4371805833484512,-0.7127967274599381,0.2588968276977539,-0.8799090981483459,-0.3984122276306152,-1.590843200683594,-50.45391082763672,-1.096954345703125,2
1596230436.199594,3,0,102768.3904821667,0.7474741723583708,0.5794664208345394,1.077388657060629,0.03523019701242447,0.05036529153585434,-0.03151676058769226,-0.03433728218078613,-0.006794452667236328,0.01757121086120605,2,-0.3681605796794973,-0.4078010961019158,-0.4367788650985721,-0.7123063009339003,0.2593490481376648,-0.8807240128517151,-0.3963121175765991,-1.690391540527344,-50.30796813964844,-1.040435791015625,2
1596230436.22953,4,0,102768.4205801667,0.7460843260686347,0.5823077573826011,1.076959187069542,0.01491187885403633,0.05036554858088493,-0.01562852598726749,0.001237928867340088,-0.001308917999267578,-0.009041726589202881,2,-0.3676477454747803,-0.4085223451289762,-0.4367960503828229,-0.7121471883567085,0.2606819272041321,-0.8805205225944519,-0.3958892524242401,-1.790542602539062,-50.45646667480469,-1.225341796875,2
1596230436.260115,5,0,102768.450678,0.7448606234110489,0.5846449321047004,1.07791733715395,0.06687901169061661,0.01165354158729315,0.001434415811672807,0.02317264676094055,0.006780803203582764,-0.03082066774368286,2,-0.3677800094654654,-0.4092068582832064,-0.4368145857445577,-0.7116743905887463,0.2611407339572906,-0.880974292755127,-0.3945752382278442,-1.461204528808594,-50.24191284179688,-0.894805908203125,2
1596230436.289817,6,0,102768.480776,0.7399910143423951,0.586840495414065,1.079789542425431,0.1186434179544449,-0.1680864691734314,-0.05898427218198776,0.05099236965179443,0.02459895610809326,-0.08140987157821655,2,-0.3690645189145036,-0.4092406540101679,-0.4355351556143914,-0.7117742047087992,0.2610927224159241,-0.8818585872650146,-0.392626941204071,-1.638092041015625,-50.19619750976562,-0.754669189453125,2
1596230436.320037,7,0,102768.510873,0.7342702972695695,0.5859737542892244,1.083620216222509,0.1830635815858841,-0.1666878014802933,0.06366618722677231,0.06040483713150024,0.02375257015228271,-0.09613668918609619,2,-0.3719908835977233,-0.4081728428476499,-0.4334408104682729,-0.7121421814772817,0.2588821351528168,-0.8836583495140076,-0.3900354206562042,-1.463157653808594,-50.4449462890625,-0.782379150390625,2
1596230436.350015,8,0,102768.54097,0.7298146861681541,0.5863720799644326,1.08865248383398,0.1893719732761383,-0.02855858206748962,-0.1065849810838699,-0.06001228094100952,0.03710031509399414,-0.01899176836013794,2,-0.3748737976322582,-0.4078699631606169,-0.4320647851499123,-0.7116400379635437,0.2565736472606659,-0.8860028982162476,-0.3862234652042389,-1.272346496582031,-50.56333160400391,-0.501953125,2
1596230436.380193,9,0,102768.571068,0.7102512093443332,0.6050293252951564,1.091594272772924,0.4412727952003479,0.06730425357818604,-0.04839495941996574,-0.05623003840446472,0.03461861610412598,-0.07470107078552246,2,-0.3760683354209254,-0.4110481153403168,-0.4286969377179778,-0.7112177870443636,0.2622507810592651,-0.8873631358146667,-0.3792241215705872,-1.490440368652344,-50.20298767089844,-0.028167724609375,2
1596230436.410184,10,0,102768.601165,0.7127982305065496,0.6269780907248714,1.107181490803458,0.2826174199581146,0.6838398575782776,0.4213247299194336,-0.1179129481315613,-0.0369110107421875,-0.005524694919586182,2,-0.3771698346626104,-0.4203298943244601,-0.4342669646881548,-0.701767511148545,0.26236292719841,-0.8944418430328369,-0.3621313869953156,-1.550552368164062,-50.36211395263672,0.478424072265625,2
1596230436.443237,11,0,102768.631263,0.6980733446212528,0.6524257140601902,1.114964482018613,0.4405174553394318,0.2938574850559235,-0.3631139695644379,0.03844118118286133,0.06458109617233276,-0.07909327745437622,2,-0.3779319538495337,-0.4269300460758543,-0.4342225015111429,-0.6973872974801669,0.2672580778598785,-0.8978951573371887,-0.3497963547706604,-1.953201293945312,-50.32169342041016,1.042510986328125,2
1596230436.470379,12,0,102768.66136,0.6690640817394528,0.6768925164923443,1.122484204342839,0.5366463661193848,-0.2662572264671326,0.1081813722848892,0.1522002816200256,0.03475332260131836,-0.1097875237464905,2,-0.381925023396015,-0.4303407618597013,-0.4291103058437334,-0.6962789074429416,0.2714984714984894,-0.9011799693107605,-0.3378802239894867,-1.666534423828125,-50.35541534423828,1.411895751953125,2
1596230436.500659,13,0,102768.691458,0.6532399160649365,0.6808308840115718,1.141386637262746,0.6760601401329041,-0.4443784356117249,0.1508448272943497,-0.1287720203399658,0.01973140239715576,-0.1724923849105835,2,-0.3921480860998164,-0.4294923276313752,-0.4253357284620475,-0.6934304025452327,0.2620568871498108,-0.9092116951942444,-0.3235124349594116,-1.947700500488281,-50.35509490966797,2.6119384765625,2
1596230436.530532,14,0,102768.721555,0.614780206751092,0.7052328433013123,1.155230441612366,0.7116521000862122,-0.1891568154096603,-0.3129753470420837,-0.288081169128418,0.05029606819152832,-0.05133527517318726,2,-0.4008701657617385,-0.4308124514663859,-0.4176226437732861,-0.6923113669721699,0.2616877853870392,-0.9148880243301392,-0.3074074983596802,-1.85321044921875,-50.35484313964844,3.257904052734375,2
1596230436.560799,15,0,102768.751652,0.5588629382845871,0.7602409143100417,1.164000377836225,0.7115679383277893,0.4099029302597046,-0.3950320184230804,-0.1295492053031921,0.02584934234619141,0.0005498528480529785,2,-0.4051728112707106,-0.4387145450463167,-0.4099994304054665,-0.6893945435301301,0.2726535797119141,-0.9183932542800903,-0.2867290675640106,-1.079795837402344,-50.3292236328125,4.6595458984375,2
1596230436.593175,16,0,102768.78175,0.4980077948139761,0.8246313395596554,1.170512194434319,0.7361032366752625,0.07524717599153519,-0.3745559751987457,-0.02185207605361938,0.0115807056427002,-0.1279594898223877,2,-0.4081886000773802,-0.448463311800603,-0.4027507946565976,-0.6856051344429922,0.2861409187316895,-0.9209502935409546,-0.264525443315506,-0.8171157836914062,-50.00662231445312,5.225616455078125,2
1596230436.621052,17,0,102768.811847,0.4336587579632658,0.8854893088041321,1.179526232952665,0.8743717670440674,0.0153050422668457,-0.2863911092281342,-0.1147903501987457,0.06002521514892578,-0.07239162921905518,2,-0.4141728252095938,-0.4558251941378113,-0.3942461832094145,-0.6820953942767551,0.2952604293823242,-0.9244254231452942,-0.2413685321807861,-0.2338409423828125,-49.93935394287109,6.73681640625,2
1596230436.650896,18,0,102768.841945,0.3658142346884969,0.9594910900647778,1.18528261614685,0.5686266422271729,0.6973499655723572,-0.3928338885307312,-0.111417680978775,0.02033424377441406,0.05187386274337769,2,-0.4175995563617169,-0.4665837366471247,-0.3873417078354751,-0.6766658276474602,0.3079350888729095,-0.9266054034233093,-0.2158204615116119,0.1312637329101562,-49.83953094482422,7.580474853515625,2
1596230436.681175,19,0,102768.872042,0.3146180501169825,1.02977441040149,1.189055841017866,0.9228375554084778,0.8916833400726318,-0.1537340432405472,-0.1521287560462952,-0.08846372365951538,-0.1001592874526978,2,-0.4175696655274287,-0.4792758349431973,-0.3853708035066152,-0.6688941587405286,0.3193312883377075,-0.9280176758766174,-0.1918604969978333,0.6905975341796875,-49.42449188232422,8.980072021484375,2
1596230436.711151,20,0,102768.90214,0.239241087566867,1.127086946601688,1.196249433660887,0.7786548137664795,1.071193099021912,-0.3484727740287781,0.01037973165512085,0.1204811334609985,0.3317567706108093,2,-0.4199392739456098,-0.4950985156451416,-0.3820153863989845,-0.6577176984131411,0.3304235935211182,-0.9306734800338745,-0.1570569276809692,0.7791976928710938,-49.21466064453125,10.4969482421875,2
1596230436.743132,21,0,102768.932237,0.169304197469355,1.23062302887198,1.191284170332075,0.7259847521781921,0.9838115572929382,-0.4314054548740387,0.4452727437019348,-0.004449427127838135,-0.05204862356185913,2,-0.4161021444903549,-0.5148356023270835,-0.3798338297551161,-0.6461652821116306,0.3492384552955627,-0.9288454651832581,-0.1236066147685051,0.758453369140625,-49.11785888671875,11.34918212890625,2
1596230436.771292,22,0,102768.962334,0.08604592841591228,1.320846521076001,1.202351718544196,1.113408923149109,0.2608546912670135,0.5693836808204651,0.2211158275604248,0.1026458740234375,0.1589193344116211,2,-0.424510967605346,-0.5246390200728793,-0.3746655636349315,-0.6357436723003259,0.3489725887775421,-0.9328886866569519,-0.08908867090940475,0.9323348999023438,-48.69161224365234,13.18197631835938,2
1596230436.801599,23,0,102768.992432,0.03383938387639926,1.383423480227545,1.226218646110689,0.5663067698478699,0.4658423364162445,0.4748168885707855,-0.1920918822288513,-0.02654510736465454,0.1888864040374756,2,-0.4342679070888822,-0.5291021402124142,-0.377635537943288,-0.6235812549539115,0.331886351108551,-0.9412181973457336,-0.06292462348937988,0.1722869873046875,-48.59718322753906,14.24737548828125,2
1596230436.831557,24,0,102769.022529,-0.03193706868468479,1.457595079512927,1.234504321157984,0.6012923717498779,0.5797659158706665,-0.1019970327615738,-0.3659297227859497,-0.04859709739685059,0.2920226454734802,2,-0.4403850265289907,-0.536118764550901,-0.3757003774092917,-0.6143995287458855,0.3278765976428986,-0.9439847469329834,-0.03727539628744125,-0.5822525024414062,-48.03425598144531,15.61767578125,2
1596230436.862141,25,0,102769.052627,-0.04836912784598709,1.499507782967291,1.226776551387099,0.08482843637466431,1.167841076850891,-0.3914636671543121,0.009706020355224609,0.08036577701568604,-0.07864856719970703,2,-0.4346387980600016,-0.546879708769149,-0.3776895581359011,-0.607751770415996,0.3364171385765076,-0.9414064884185791,-0.0240233987569809,-0.6640625,-47.89004516601562,15.74240112304688,2
1596230436.892458,26,0,102769.082724,-0.08740363994958862,1.573839615699014,1.219039017459694,0.5809874534606934,0.9055417776107788,-0.03942709416151047,0.2743541598320007,0.03602051734924316,-0.1755040884017944,2,-0.4291652000153435,-0.5624424501544091,-0.3797378850986948,-0.5960493443357244,0.3445463478565216,-0.9387686848640442,0.001048557227477431,-0.8064956665039062,-47.60006713867188,16.541015625,2
1596230436.921934,27,0,102769.112822,-0.128078292459668,1.617753144713026,1.222949797996234,0.5040700435638428,-0.2401565760374069,0.199181467294693,0.2351377606391907,-0.08048009872436523,-0.1822673082351685,2,-0.4333905869683617,-0.5658381721830179,-0.378327379449191,-0.5906505867167362,0.3404982388019562,-0.9401089549064636,0.01600047573447227,-1.026390075683594,-47.50447845458984,16.91061401367188,2
1596230436.951879,28,0,102769.142919,-0.1806217402147764,1.658423107085812,1.226093674948763,0.5438094735145569,-0.4297743737697601,0.1520475596189499,0.04497712850570679,0.1363304853439331,0.09959912300109863,2,-0.4414429090520643,-0.5656098308478408,-0.3727176779472851,-0.5884684032186172,0.3366198837757111,-0.9411759972572327,0.02957264520227909,-1.233230590820312,-47.35045623779297,17.81195068359375,2
1596230436.982173,29,0,102769.173016,-0.2252309434466615,1.687076910160923,1.230691635742708,0.4791595339775085,-0.3223901987075806,0.1865566670894623,-0.1627679467201233,-0.08318930864334106,0.05592131614685059,2,-0.4498807712116493,-0.5629905553350095,-0.3674605988422736,-0.5878958247214082,0.3313326835632324,-0.9427197575569153,0.03870214894413948,-1.0318603515625,-47.33054351806641,18.14556884765625,2
1596230437.01205,30,0,102769.203114,-0.2595065072693568,1.715352007096238,1.230801353081165,0.2343272119760513,0.06145793199539185,-0.11539376527071,-0.2274304926395416,0.00843125581741333,0.19944167137146,2,-0.4543910615520351,-0.5635142079226199,-0.3638279047360411,-0.5861822554162108,0.3300037682056427,-0.9427563548088074,0.04803900048136711,-1.243812561035156,-47.08399200439453,19.08843994140625,2
1596230437.043236,31,0,102769.233211,-0.2766185165229209,1.739838844974213,1.222949282098985,0.2183102667331696,0.3750552237033844,-0.2518629729747772,-0.08006644248962402,0.06383782625198364,0.1182588338851929,2,-0.4529562593138944,-0.5687747559426479,-0.3617633606369072,-0.5834835413505685,0.3360154628753662,-0.9401087760925293,0.05734819173812866,-1.252845764160156,-46.75030517578125,19.31573486328125,2
1596230437.072302,32,0,102769.263309,-0.2857381151737503,1.762358812227376,1.217000819063708,0.06825043261051178,0.7512988448143005,-0.1415774375200272,0.001158356666564941,-0.05800062417984009,0.2356855869293213,2,-0.4501247027581844,-0.5747778433309849,-0.3621896279106471,-0.5795142199981806,0.3401228785514832,-0.9380644559860229,0.06596363335847855,-1.111846923828125,-46.69894409179688,19.75619506835938,2
1596230437.102558,33,0,102769.293406,-0.2737984729594162,1.77330798648814,1.213632656810893,-0.3269410729408264,0.5533556342124939,-0.1154656037688255,-0.01069986820220947,-0.004119813442230225,0.1053249835968018,2,-0.4439129989676437,-0.5814642102881054,-0.3669382981632144,-0.5746275164735698,0.3424732983112335,-0.9368922114372253,0.07031875848770142,-1.28790283203125,-46.55299377441406,19.77493286132812,2
1596230437.132479,34,0,102769.323504,-0.2527265353801004,1.769763053675688,1.21166182399878,0.01268216781318188,0.5577847957611084,-0.1398372054100037,0.03528088331222534,0.01533657312393188,-0.0995631217956543,2,-0.4379685380340915,-0.5855921072035252,-0.3715291014122998,-0.5720414860764932,0.3445298373699188,-0.9362013936042786,0.06946910917758942,-1.1962890625,-46.71976470947266,19.33111572265625,2
1596230437.16272,35,0,102769.353601,-0.2468077333560293,1.782694163064809,1.20709523411897,-0.1347355842590332,0.597215473651886,-0.1766685545444489,0.1671806573867798,0.05087018013000488,0.1335419416427612,2,-0.4327643865259524,-0.591712199689324,-0.374482547573399,-0.5677625613837229,0.3477786481380463,-0.9345866441726685,0.07481668144464493,-1.715728759765625,-46.77685546875,19.11026000976562,2
1596230437.192711,36,0,102769.383698,-0.2250568012828152,1.774889371538692,1.206684510839711,-0.3597366809844971,0.05218925699591637,0.1519555002450943,0.2353862226009369,-0.1342910528182983,0.04065120220184326,2,-0.4276899595883366,-0.59428132237899,-0.3788297308626783,-0.5660380278491766,0.3487282991409302,-0.9344404339790344,0.07217798382043839,-1.655479431152344,-47.00677490234375,18.95553588867188,2
1596230437.222967,37,0,102769.413796,-0.1830848923524754,1.734560428306058,1.22093525173846,-0.6675249934196472,0.07147451490163803,0.4858669936656952,0.05937093496322632,0.04341036081314087,0.1082394123077393,2,-0.426404065675185,-0.5883202585976327,-0.3868597985931078,-0.5678011378425416,0.3381806313991547,-0.9394203424453735,0.05588230863213539,-2.091041564941406,-47.37320709228516,18.06069946289062,2
1596230437.252891,38,0,102769.4438917917,-0.1330269204777061,1.697685559660502,1.234958642379444,-0.6686217188835144,0.5114802122116089,0.2409795671701431,-0.1390895843505859,-0.04435569047927856,0.2866263389587402,2,-0.4224466090206069,-0.5851423638967745,-0.3977622116948107,-0.56650890507952,0.326910138130188,-0.9441345930099487,0.04170544818043709,-2.712936401367188,-47.53732299804688,17.53173828125,2
1596230437.28313,39,0,102769.4739897917,-0.03111838564826604,1.620753448349417,1.238557156529793,-1.544597387313843,1.002166628837585,-0.1779380440711975,-0.0323258638381958,-0.06920677423477173,0.4223002195358276,2,-0.4091905589774654,-0.5837008688345888,-0.4117790192375208,-0.567709630833485,0.3257530331611633,-0.9453144073486328,0.01628723554313183,-3.091407775878906,-48.07662963867188,15.79946899414062,2
1596230437.313066,40,0,102769.5040867917,0.1441778417061352,1.498747851719227,1.234757001282728,-2.329634189605713,1.984676241874695,-0.02592709101736546,-0.2678255438804626,-0.3200585842132568,0.3409837484359741,2,-0.3827146110948802,-0.5845175707135252,-0.4363083228658271,-0.5670130260569752,0.3288950026035309,-0.9440680742263794,-0.02373747155070305,-3.422050476074219,-48.627197265625,14.14678955078125,2
1596230437.343296,41,0,102769.5341847917,0.3669135513608809,1.383356951865791,1.210524150619297,-3.330121278762817,4.094941139221191,-1.076844334602356,-0.6511076688766479,-0.4969104528427124,0.5635019540786743,2,-0.3351712216366597,-0.5956630880925354,-0.4723645509293571,-0.5565225026096523,0.3463538289070129,-0.9358009099960327,-0.06569147855043411,-4.056282043457031,-49.46758270263672,9.535003662109375,2
1596230437.373224,42,0,102769.5642817917,0.7410294534968238,1.221546780607204,1.103757630442238,-7.186672687530518,9.39470386505127,-2.912114381790161,-0.7955732345581055,-1.292526960372925,1.049523830413818,2,-0.2235210778358997,-0.6107399041388135,-0.532868831490383,-0.5413739836986655,0.4230625629425049,-0.8929055333137512,-0.1540701985359192,-3.308006286621094,-50.14639282226562,5.120574951171875,2
1596230437.403389,43,0,102769.5943787917,1.16360701243009,1.188700174533588,0.9232401672779235,-9.931900024414062,12.40373420715332,-2.914180994033813,-0.9414951205253601,0.1203047037124634,1.581398963928223,2,-0.03279226798286974,-0.6216598486567518,-0.6160148798668876,-0.4826894697854777,0.5597362518310547,-0.7975603938102722,-0.2249273955821991,3.105224609375,-48.69654083251953,-9.5726318359375,2
1596230437.433448,44,0,102769.6244767917,1.503891184964934,1.351794699854016,0.7394459791048599,-8.509115219116211,14.29343128204346,-3.99947452545166,-0.4151362180709839,1.20058000087738,2.219907283782959,2,0.1925490999415935,-0.6186002028691582,-0.6619872474536875,-0.3768706528175405,0.7211946249008179,-0.6738786697387695,-0.1605172604322433,9.415969848632812,-45.79120635986328,-16.22686767578125,2
1596230437.46373,45,0,102769.6545737917,1.825992636819855,1.548710804291017,0.5723435467182829,-10.13277912139893,11.78036785125732,-5.071295261383057,-0.0492708683013916,0.7700545191764832,2.087433099746704,2,0.40747136031536,-0.5698113082926631,-0.6633776685118038,-0.2630817965933918,0.8404287695884705,-0.5416036248207092,-0.01856432668864727,26.54302978515625,-35.72933959960938,-19.77874755859375,2
1596230437.493627,46,0,102769.6846717917,2.200952685193818,1.706880549772175,0.4352404694235059,-10.81580543518066,10.92825508117676,-4.857600212097168,0.5259091258049011,0.2981483042240143,1.379270911216736,2,0.5915642920571946,-0.4599563686406327,-0.6459239963336122,-0.1458550238437591,0.8983850479125977,-0.421628475189209,0.1230163425207138,34.30325317382812,-28.69452667236328,-18.68505859375,2
1596230437.52632,47,0,102769.7147687917,2.558313268284521,1.865194468308879,0.406295119560925,-10.65946483612061,8.905351638793945,-1.160804271697998,0.5447542667388916,0.3093477487564087,0.9042905569076538,2,0.7188777377537584,-0.3413001756584345,-0.6054509534947817,-0.01256977058205008,0.8790705800056458,-0.3952087759971619,0.2665420174598694,45.16423034667969,-14.8824577331543,-9.908599853515625,2
1596230437.554021,48,0,102769.7448667917,2.893309608221681,1.975437714614679,0.5664596499901493,-11.03458023071289,8.485312461853027,3.496969699859619,0.199604332447052,0.7451800107955933,0.467287540435791,2,0.7762924243160241,-0.2519300118452198,-0.5534761240682854,0.1660286432559126,0.775663435459137,-0.5366480350494385,0.3321973085403442,46.84184265136719,-12.26496887207031,-4.40545654296875,2
1596230437.584111,49,0,102769.7749637917,3.137062641504158,2.068914144225791,0.7597151216719634,-5.308776378631592,7.015945911407471,1.720436692237854,1.266301274299622,1.241498231887817,-0.5868438482284546,2,0.7978803697841315,-0.1912777311753188,-0.4752882986132141,0.3176483665081775,0.6369282603263855,-0.6887149214744568,0.3464004993438721,45.015380859375,-17.18065643310547,5.8251953125,2
1596230437.613955,50,0,102769.8050607917,-3.094560182405414,2.206491101333194,0.7873109047919574,1.747430562973022,1.709817171096802,-0.545316755771637,1.446570873260498,1.352071046829224,0.5242587327957153,2,0.8282338870685808,-0.1534413290461829,-0.4080620885503873,0.3520930681385819,0.567890465259552,-0.7084580063819885,0.4190312325954437,43.45050048828125,-19.44939422607422,10.37799072265625,2
1596230437.644261,51,0,102769.8351587917,3.079442206161284,2.202892082256075,0.7122039536731209,4.141919612884521,-4.880648612976074,-0.1076705530285835,0.1980600953102112,0.3841361403465271,1.362417459487915,2,0.8306065535361918,-0.1835805351022941,-0.4333861965580641,0.2976024202757473,0.6106787919998169,-0.6535035967826843,0.447218120098114,43.35494995117188,-18.20993041992188,14.4486083984375,2
1596230437.675926,52,0,102769.8652557917,3.002499487449547,2.186087009584448,0.7238156992603945,-0.9387429356575012,1.081803679466248,3.192977428436279,0.07777363061904907,-0.3052574396133423,2.93757963180542,2,0.8171863716607535,-0.220109808053597,-0.4508107019319265,0.2837741984861981,0.611869752407074,-0.6622485518455505,0.4324837923049927,43.83868408203125,-18.83973693847656,11.11520385742188,2
1596230437.70433,53,0,102769.8953537917,3.040654228462403,2.222309098942107,0.8589383128648044,-4.550430297851562,2.19098973274231,2.249372959136963,-0.6258810758590698,0.2208684086799622,0.1258533000946045,2,0.8044674221074571,-0.225591932764484,-0.4216519927415159,0.3523491815047142,0.5194362998008728,-0.7571494579315186,0.3961191177368164,42.24760437011719,-21.8917236328125,11.2978515625,2
1596230437.734496,54,0,102769.9254507917,3.040012649936241,2.216423790109566,0.8869872519248417,3.689761400222778,-1.868521809577942,-0.6795652508735657,0.00957179069519043,0.713532030582428,-1.440940856933594,2,0.7975635969956638,-0.2322805498962561,-0.4220652702732077,0.3630411793875125,0.5045929551124573,-0.7751719355583191,0.3801238834857941,40.54768371582031,-25.07210540771484,10.74130249023438,2
1596230437.764738,55,0,102769.9555477917,2.982115365966342,2.188837477197381,0.8018839303738715,0.8168793916702271,-2.806911945343018,-1.671693086624146,0.3236541152000427,0.207633912563324,-0.06520938873291016,2,0.8013298787516758,-0.2435738307342662,-0.4484811552870396,0.3121004415843573,0.5667237043380737,-0.7186673879623413,0.4029155671596527,41.59297180175781,-23.63578033447266,10.52734375,2
1596230437.794636,56,0,102769.9856457917,2.980635176883935,2.125725228372874,0.7805371038290294,0.5717148780822754,-1.693002820014954,0.8020753860473633,-0.1364491581916809,-1.211827874183655,-0.254626989364624,2,0.7905606486834063,-0.2493959942476553,-0.4750679091565021,0.295170956094881,0.6039111018180847,-0.7036611437797546,0.3743689954280853,43.220703125,-21.438232421875,7.440887451171875,2
1596230437.826473,57,0,102770.0157427917,2.929291320223781,2.149153162650695,0.8177485468125135,-0.3005912601947784,1.192309737205505,1.905370354652405,-0.5093570947647095,-0.2273973822593689,0.07417714595794678,2,0.7823025771153378,-0.2737148088273759,-0.4714430607960423,0.3013706640405728,0.5726430416107178,-0.7296079993247986,0.3738342523574829,42.65870666503906,-22.97200012207031,6.54461669921875,2
1596230437.855134,58,0,102770.0458407917,2.91879585912835,2.225762738209255,0.8514981210339099,-0.2888519465923309,2.664169549942017,-0.007696428801864386,-0.350395143032074,0.2515195608139038,-0.1231129169464111,2,0.7915422344627442,-0.2722617771371525,-0.4413013769258273,0.3233998640684308,0.522518515586853,-0.7522683143615723,0.4013311564922333,41.10153198242188,-25.12608337402344,8.76275634765625,2
1596230437.885034,59,0,102770.0759377917,2.938553425801683,2.268142544402038,0.838849999275707,0.05935860425233841,1.180774450302124,-0.7258948683738708,0.139806866645813,0.1151738166809082,-0.2457520961761475,2,0.8058824884450927,-0.2552365743875037,-0.4217208058395366,0.3279621439411855,0.5122989416122437,-0.7438750267028809,0.4291845858097076,40.71580505371094,-25.02021026611328,10.73385620117188,2
1596230437.915051,60,0,102770.1060357917,2.942344460060275,2.296069588612956,0.8362632665389985,-0.220962718129158,0.9312698841094971,0.6030216813087463,0.4702335000038147,0.1144259572029114,-0.03678047657012939,2,0.8126915463899171,-0.2486586364179725,-0.4099055755651916,0.3311777240362233,0.5015531778335571,-0.7421438097953796,0.4445973336696625,40.67521667480469,-24.14429473876953,12.711669921875,2
1596230437.945256,61,0,102770.1361327917,2.922101699803321,2.338162709944278,0.8663400573024523,-0.3676840662956238,0.99070805311203,1.199237704277039,0.01271241903305054,-0.06441265344619751,-0.05912911891937256,2,0.8123829563143399,-0.2546295009273487,-0.3950630039291418,0.345141659802118,0.4661183953285217,-0.7619637846946716,0.4496045112609863,39.95730590820312,-24.82808685302734,13.24392700195312,2
1596230437.975877,62,0,102770.1662297917,2.896387665246598,2.388779251756018,0.8909544486605372,-0.05533966422080994,1.15966260433197,0.5737716555595398,-0.5692362785339355,0.06697291135787964,-0.01409614086151123,2,0.813559545063543,-0.2598315586189363,-0.3782236789944166,0.3571485593418545,0.4298180341720581,-0.7776721119880676,0.4587831497192383,38.57373046875,-26.82447814941406,14.35772705078125,2
1596230438.005416,63,0,102770.1963277917,2.903483859120291,2.42245736505976,0.8923284441594818,-0.2908054888248444,1.480643272399902,-0.7493200302124023,-0.3183028101921082,0.1796795725822449,0.2166212797164917,2,0.8204068359370176,-0.2510541947993153,-0.3631516480464156,0.3633524704805078,0.4134218692779541,-0.7785351872444153,0.47219118475914,38.08460998535156,-27.20550537109375,15.44915771484375,2
1596230438.035417,64,0,102770.2264247917,2.952962345534047,2.427784748738877,0.8818827497323815,-0.421034961938858,1.138118863105774,-0.9558712840080261,0.2409056127071381,0.02321118116378784,0.0254213809967041,2,0.8295523149957377,-0.2282479011371975,-0.3522134141450233,0.3683632437582311,0.4162026345729828,-0.7719371318817139,0.4805082976818085,37.65034484863281,-26.12397003173828,17.04367065429688,2
1596230438.065571,65,0,102770.2565227917,2.969200021118334,2.429475365533844,0.8784849582439859,0.1154628917574883,-0.0875302255153656,0.3372771143913269,0.2885022163391113,-0.03440254926681519,-0.005880951881408691,2,0.8323949918564263,-0.220716230474238,-0.3486356840359104,0.3699407025322085,0.4171013534069061,-0.7697727084159851,0.4831941425800323,38.02581787109375,-25.49874877929688,17.75216674804688,2
1596230438.095656,66,0,102770.2866197917,2.948723031741328,2.432254542661284,0.8865682387893141,-0.07159381359815598,-0.5876678824424744,0.3462964296340942,0.115199863910675,0.003822147846221924,0.1127684116363525,2,0.8288470098869893,-0.2298249957369131,-0.3509842770077948,0.3701390346821032,0.4116901457309723,-0.7749071717262268,0.4796137809753418,37.77894592285156,-26.06895446777344,17.84585571289062,2
1596230438.125868,67,0,102770.3167167917,2.95528942850518,2.413366279764892,0.8927415913361549,-0.318112701177597,-0.277659147977829,-0.1535848826169968,0.03063791990280151,0.09563750028610229,-0.03693556785583496,2,0.8249289370947699,-0.2314713680807206,-0.357357596468749,0.3717643329542754,0.4174836575984955,-0.7787944078445435,0.4681735038757324,37.91963195800781,-26.44796752929688,16.96112060546875,2
1596230438.155972,68,0,102770.3468147917,2.956898843531699,2.411811456708681,0.8927583331652343,0.3036024570465088,0.4275665581226349,0.1524913161993027,-0.2181680202484131,-0.02729213237762451,0.01715397834777832,2,0.8248335330918006,-0.2310990268041468,-0.3576990894978934,0.3718793366794075,0.4182024896144867,-0.7788048982620239,0.4675142467021942,37.97586059570312,-26.43989562988281,16.55938720703125,2
1596230438.185979,69,0,102770.3769117917,2.944814004247885,2.447333343080005,0.883864836213362,0.1184595301747322,1.000061631202698,-0.3747550547122955,-0.2056837677955627,-0.0476108193397522,0.3846715688705444,2,0.8316069263078301,-0.2282925094835011,-0.3455347042328567,0.3700243542885415,0.4057505428791046,-0.7731956243515015,0.4873751103878021,37.52529907226562,-26.24946594238281,18.00149536132812,2
1596230438.216266,70,0,102770.4070097917,2.976791171192509,2.442404725566888,0.8794441626043433,-0.4905240833759308,0.3308745920658112,-0.6049754023551941,0.193759024143219,0.0523686408996582,0.2216891050338745,2,0.8352507042140107,-0.2152829759001134,-0.3417991341864545,0.3730721415396223,0.4103437662124634,-0.7703846096992493,0.487980991601944,37.39431762695312,-25.93122100830078,18.41079711914062,2
1596230438.246213,71,0,102770.43710675,2.985040105626873,2.428780446104491,0.8761816545955327,0.5306115746498108,-0.9847632050514221,0.1839120835065842,0.3000649213790894,0.1294338703155518,-0.2947714328765869,2,0.8344821611186282,-0.2139194044213899,-0.3460782711195614,0.371628488118904,0.4185951948165894,-0.7683004140853882,0.4842439889907837,37.78099060058594,-25.37423706054688,18.21240234375,2
1596230438.27661,72,0,102770.46720475,2.956269555150969,2.408496405055103,0.8645300299892478,0.5829817056655884,-1.555382251739502,0.05059078335762024,0.07341527938842773,0.1159771680831909,0.006786465644836426,2,0.8301703098850984,-0.2279345329255771,-0.3602213215133077,0.3593097547254082,0.4342918992042542,-0.7607903480529785,0.4822737872600555,37.98782348632812,-25.29656982421875,17.63442993164062,2
1596230438.309047,73,0,102770.49730175,2.946387807768887,2.370698880368053,0.8526341471950862,0.4458267390727997,-1.339393973350525,-0.1637537479400635,-0.08376240730285645,-0.0866965651512146,-0.0002319812774658203,2,0.8245264110965435,-0.2369483267047869,-0.3780323591249846,0.3479985673135172,0.4584799706935883,-0.7530162930488586,0.471976637840271,39.05557250976562,-24.9580078125,15.9573974609375,2
1596230438.336489,74,0,102770.52739875,2.933791198593736,2.353973660344991,0.8436978454955675,0.2758362293243408,-0.2949434816837311,0.07683508098125458,-0.0644393265247345,0.05405628681182861,0.08814144134521484,2,0.8216601302463759,-0.2436403583362801,-0.3873975493032144,0.3397602132518872,0.471059650182724,-0.7471061944961548,0.4689719974994659,39.43705749511719,-24.76101684570312,15.04824829101562,2
1596230438.369274,75,0,102770.55749675,2.929823230891258,2.359536606842174,0.8366193025633653,0.2225926667451859,0.0719977542757988,-0.3392952680587769,0.02821183204650879,0.1889317035675049,0.07234787940979004,2,0.8237085691387598,-0.2432424785518709,-0.3860166553246968,0.3366427786927907,0.472158819437027,-0.7423824071884155,0.4753254055976868,39.63716125488281,-24.56236267089844,15.08251953125,2
1596230438.396601,76,0,102770.58759375,2.933587566300035,2.341124336866719,0.8227106246234094,0.2989010214805603,-1.083515882492065,-0.3071258664131165,0.1038774847984314,-0.0007164478302001953,-0.1467194557189941,2,0.8234069738556564,-0.2425888055686236,-0.3934308939998786,0.3291862608281944,0.488193690776825,-0.73299241065979,0.4736967384815216,39.89634704589844,-24.30690765380859,15.0660400390625,2
1596230438.428999,77,0,102770.61769175,2.925023386645995,2.308172021242162,0.8133112040675258,0.4044387936592102,-1.131209492683411,0.1153264939785004,0.3864330053329468,-0.001950502395629883,-0.2063177824020386,2,0.8176316738094532,-0.249924363176562,-0.4086580119487441,0.31939753534071,0.5086129903793335,-0.7265662550926208,0.4619674682617188,40.59420776367188,-23.79026031494141,13.600830078125,2
1596230438.456853,78,0,102770.64778875,2.904994322139175,2.300765137084545,0.8161475918394429,0.1108216047286987,-0.5649264454841614,0.636533796787262,0.1683204770088196,-0.1005791425704956,-0.2168998718261719,2,0.8129849418660303,-0.2597329611571517,-0.4147644309845424,0.315538580173841,0.5104829072952271,-0.7285122275352478,0.4568114578723907,40.74031066894531,-23.82364654541016,13.11700439453125,2
1596230438.488968,79,0,102770.67788675,2.882927031770202,2.299615453552363,0.8299220110149335,0.1095252633094788,-0.5745001435279846,0.5547983646392822,-0.3239951729774475,-0.1792503595352173,-0.2766863107681274,2,0.8070031524233813,-0.2710996130687979,-0.4183128907968038,0.3166467248499401,0.5034740567207336,-0.7378787398338318,0.449498176574707,40.4609375,-24.51821899414062,12.25677490234375,2
1596230438.516966,80,0,102770.70798375,2.869150105441731,2.297650975621602,0.8309382717994083,0.23148213326931,-0.2078336775302887,-0.09560292214155197,-0.312907338142395,0.07129186391830444,-0.0448460578918457,2,0.8044920333853441,-0.2771234657839671,-0.4212491979373624,0.3139174576923881,0.5037954449653625,-0.7385642528533936,0.4480096995830536,40.32493591308594,-25.12484741210938,11.6419677734375,2
1596230438.548955,81,0,102770.73808075,2.871159048577683,2.291677425274421,0.8216761082251167,0.1038080826401711,-0.1023646295070648,-0.3311530947685242,0.07734966278076172,0.02806550264358521,0.1059525012969971,2,0.8054233988673382,-0.2757485014848061,-0.4235740623084681,0.3095815527292658,0.5115796327590942,-0.7322883009910583,0.4494881629943848,40.28375244140625,-24.73509216308594,11.62322998046875,2
1596230438.577268,82,0,102770.76817875,2.872082974489761,2.286035067944626,0.8182670015243552,0.0458347350358963,-0.3071494698524475,0.251510888338089,0.3398169875144958,0.00259101390838623,0.06502258777618408,2,0.8050526642114454,-0.2756896504403965,-0.425790157373451,0.3075516589203786,0.515989363193512,-0.7299624681472778,0.4482291638851166,40.67546081542969,-24.63785552978516,11.37997436523438,2
1596230438.609144,83,0,102770.79827575,2.85282503533596,2.281424656437828,0.8269725454212187,0.2260260879993439,-0.9755298495292664,0.5713228583335876,0.1843201518058777,0.07738077640533447,0.01852655410766602,2,0.799565604326998,-0.2855458777947398,-0.4303838690032038,0.306476513494921,0.5132140517234802,-0.7358848452568054,0.4416832029819489,40.60882568359375,-24.83645629882812,11.38018798828125,2
1596230438.637376,84,0,102770.82837375,2.828488247718621,2.261490225422026,0.8320436673716223,0.4552786350250244,-1.5058354139328,0.4046108424663544,-0.1028437614440918,-0.01987141370773315,-0.03460967540740967,2,0.7905986435021528,-0.2990738755968342,-0.4418913125205624,0.3004006898794732,0.5190333724021912,-0.7393090724945068,0.4289827942848206,40.43475341796875,-25.859375,9.590362548828125,2
1596230438.668944,85,0,102770.85847075,2.802604873310646,2.230608319517588,0.8276424763931309,0.5383461117744446,-1.768659949302673,0.03061595559120178,-0.2683084607124329,0.02756303548812866,0.06658589839935303,2,0.7806204852359939,-0.3130540820717386,-0.4579145596250154,0.2879979776411244,0.5345970988273621,-0.7363382577896118,0.4147424101829529,40.50018310546875,-25.80784606933594,8.664276123046875,2
1596230438.697574,86,0,102770.88856775,2.784357277086577,2.189778039176459,0.8118699101401009,0.7976898550987244,-1.881207466125488,-0.3172664046287537,-0.1681159734725952,-0.03876656293869019,0.06050050258636475,2,0.7715064590582372,-0.3231252448376107,-0.4765780321819935,0.2706305410041454,0.5604709386825562,-0.7255752086639404,0.3992642760276794,41.02883911132812,-25.3907470703125,6.27313232421875,2
1596230438.729045,87,0,102770.91866575,2.76049846777268,2.145415879774666,0.7836211535062187,1.16316831111908,-2.19796085357666,-0.6931425929069519,-0.07812047004699707,0.05674761533737183,0.1304800510406494,2,0.7626766961440777,-0.3329069332650051,-0.4970869988830098,0.2457671217914639,0.5945981740951538,-0.7058491110801697,0.3850055336952209,41.67518615722656,-25.04660034179688,5.338470458984375,2
1596230438.757893,88,0,102770.94876275,2.729642584800773,2.08874359251453,0.7357810677714164,1.892607569694519,-3.062628507614136,-1.231390595436096,-0.02901327610015869,0.1240856051445007,0.1181631088256836,2,0.7527454704297017,-0.3418828232469447,-0.5225125592197376,0.2084969259832165,0.6440749168395996,-0.6711663603782654,0.3670192062854767,42.90742492675781,-23.50249481201172,2.19183349609375,2
1596230438.789158,89,0,102770.97886075,2.67262073163585,2.015429772108968,0.6681141153010191,2.52073860168457,-4.390664577484131,-1.212201237678528,0.09860080480575562,-0.03023725748062134,0.08659625053405762,2,0.7363420744055,-0.3558416022822676,-0.5549048303249298,0.1525040102093368,0.7086650133132935,-0.6195066571235657,0.3376457989215851,43.28286743164062,-22.39102935791016,0.438232421875,2
1596230438.817957,90,0,102771.00895775,2.589206416683264,1.922465831672225,0.6169282806310746,3.035687208175659,-5.235682964324951,-0.1437283903360367,0.6172400712966919,-0.01139086484909058,-0.01536071300506592,2,0.7041950919073137,-0.380253245736257,-0.5926923918288893,0.09073196271952516,0.765739917755127,-0.5785323977470398,0.2809665203094482,43.62986755371094,-20.78310394287109,-4.925323486328125,2
1596230438.848937,91,0,102771.03905575,2.471355519472666,1.81265594690153,0.5909542315108158,3.681965112686157,-6.015087604522705,0.1777300834655762,0.5942854285240173,0.3155413269996643,0.1809172630310059,2,0.6521775949485557,-0.4172642098610824,-0.6324946837126442,0.02247768906687819,0.8062394261360168,-0.5571537017822266,0.1988900750875473,42.65377807617188,-21.126220703125,-8.5718994140625,2
1596230438.878124,92,0,102771.06915275,2.323817782865165,1.702361307085691,0.5739454715228447,4.545980930328369,-7.072039604187012,0.3019808530807495,-0.04185336828231812,0.1219596862792969,0.4395983219146729,2,0.58766917801438,-0.4579602097349469,-0.6646654220894389,-0.05601033573271139,0.8325077891349792,-0.5429495573043823,0.1101652309298515,39.30397033691406,-23.41766357421875,-15.51983642578125,2
1596230438.909257,93,0,102771.09924975,2.155412326536737,1.562465137883242,0.5748187776509049,4.61510705947876,-7.841776371002197,0.4067965745925903,-0.1769495606422424,0.09328395128250122,0.7998228073120117,2,0.4995555100535344,-0.4969388166752507,-0.6942894726531639,-0.1464862999620484,0.8392617106437683,-0.5436826944351196,-0.006992209702730179,36.5400390625,-25.20108795166016,-18.847900390625,2
1596230438.938357,94,0,102771.12934775,1.995605432398353,1.415162725342813,0.6088036135585176,4.590172290802002,-8.05406665802002,1.045710921287537,-0.3148725032806396,0.08462542295455933,0.4394626617431641,2,0.3975857961652042,-0.5275862553014266,-0.7148246689094886,-0.2293554092201225,0.8104177713394165,-0.571886420249939,-0.1271565556526184,29.28195190429688,-29.84491729736328,-24.51229858398438,2
1596230438.969188,95,0,102771.15944475,1.826297077796593,1.265331054830207,0.6673136307349412,5.026174068450928,-8.305622100830078,0.5181229114532471,-0.2610751986503601,0.3648322224617004,0.3790733814239502,2,0.2807214566183963,-0.5505297351488044,-0.7214246288829301,-0.3125042656349046,0.7491245269775391,-0.6188781261444092,-0.2362249493598938,24.56784820556641,-32.87913513183594,-26.14181518554688,2
1596230438.998589,96,0,102771.18954275,1.642274376419085,1.135979438032662,0.7335109936200576,5.337700843811035,-8.259106636047363,0.3907790184020996,0.2515130639076233,0.3325077295303345,0.3056218028068542,2,0.1615705371877539,-0.5634171039305895,-0.7074039321161192,-0.3950136261751213,0.6737061142921448,-0.6694818139076233,-0.312912255525589,14.76332092285156,-38.70619964599609,-26.20953369140625,2
1596230439.048039,97,0,102771.21963975,1.463152882994683,1.005594635303821,0.835109668167157,5.106736660003662,-8.696704864501953,1.712793588638306,0.4533180594444275,0.0897936224937439,0.4900873899459839,2,0.02984314098863572,-0.5651499206041014,-0.6804847832127116,-0.4654625383548283,0.5667278170585632,-0.7413701415061951,-0.3594298958778381,9.804847717285156,-41.35432434082031,-24.27581787109375,2
1596230439.058754,98,0,102771.24973775,1.352083938422278,0.8368516786305901,0.9741969985110677,4.391708850860596,-8.007277488708496,2.517995595932007,-0.2921772599220276,0.01491957902908325,0.1895014047622681,2,-0.1089462126296111,-0.5476969733670914,-0.6535897353031842,-0.5108610946260459,0.4171819090843201,-0.8272510170936584,-0.3763175010681152,-0.3587799072265625,-46.31480407714844,-18.2208251953125,2
1596230439.1065,99,0,102771.27983475,1.26054999308352,0.7203329392009352,1.106189136976941,3.754427671432495,-4.561384201049805,1.043628454208374,-0.8699967861175537,0.02135753631591797,0.09569847583770752,2,-0.2204190303675491,-0.532008651872118,-0.6188851444975773,-0.5341942084534155,0.2955637574195862,-0.8939976692199707,-0.3367644846439362,-8.317314147949219,-48.96067047119141,-9.66729736328125,2
1596230439.119013,100,0,102771.30993175,1.110887733242163,0.7596553441065137,1.172819033535913,2.409713506698608,-2.929521560668945,-0.7155996561050415,-0.3905770182609558,-0.1808977723121643,-0.09123730659484863,2,-0.2738263384666347,-0.5334007064136362,-0.5822438496979766,-0.5490856515128595,0.2668979465961456,-0.9218468070030212,-0.2810056507587433,-9.254264831542969,-49.22328186035156,-5.945953369140625,2
1596230439.167321,101,0,102771.34002975,0.9565012070252815,0.7981116474877571,1.214469748396055,2.405938625335693,-3.601662874221802,0.2095358967781067,0.4672449827194214,0.06380563974380493,-0.1012321710586548,2,-0.3199231666153137,-0.5252577587264734,-0.5450856019072908,-0.5697675456856977,0.2497786283493042,-0.9371845722198486,-0.243506908416748,-9.227035522460938,-49.87799072265625,-0.44940185546875,2
1596230439.179111,102,0,102771.37012675,0.8534627804446902,0.8012856143037005,1.281794031098689,2.225287675857544,-2.958524942398071,1.184029698371887,0.388336181640625,0.1720191836357117,0.1833845376968384,2,-0.3718020295350679,-0.5124601966546284,-0.5177724032636983,-0.5753777079212825,0.2046986818313599,-0.9585286974906921,-0.1982955932617188,-9.472686767578125,-49.84976959228516,1.985687255859375,2
1596230439.226875,103,0,102771.40022475,0.7497060462800632,0.8095480231294018,1.344533748506993,1.738713502883911,-3.392668962478638,0.5744290351867676,-0.1200881749391556,-0.07598620653152466,0.4709601402282715,2,-0.4198729383398081,-0.4963163212583793,-0.4915401181848225,-0.5794525320455406,0.1624147146940231,-0.9745116233825684,-0.1547536551952362,-10.69497680664062,-49.23725891113281,7.25262451171875,2
1596230439.239364,104,0,102771.430322375,0.725937394390761,0.7368586476677602,1.37544092523912,0.05139688402414322,-1.589562058448792,0.52121901512146,-0.9346150159835815,-0.634555459022522,0.1764131784439087,2,-0.4547918688604276,-0.4704096878758728,-0.4696565765968782,-0.5927070956700886,0.1304383426904678,-0.9809787273406982,-0.143758162856102,-10.65508270263672,-48.94230651855469,9.11785888671875,2
1596230439.286784,105,0,102771.460420375,0.6957777969180676,0.8143240012252015,1.382640146975618,0.8825545907020569,2.894757747650146,-0.3988953232765198,-0.9739924669265747,0.1584770679473877,0.3752896189689636,2,-0.4463554532104653,-0.4863904568819989,-0.4785206145923,-0.578972501713803,0.136032834649086,-0.982350766658783,-0.1283822655677795,-11.21633148193359,-48.63926696777344,9.6019287109375,2
1596230439.299565,106,0,102771.490517375,0.5018701066063316,1.075337548084017,1.383477555878411,0.759084165096283,2.319638967514038,-1.042709589004517,-0.2864871621131897,0.01843786239624023,0.3455219864845276,2,-0.4327797304649248,-0.5181049640082628,-0.4806989161954063,-0.5596404535821191,0.163831502199173,-0.982507050037384,-0.08853790163993835,-11.14159393310547,-48.51232147216797,10.34689331054688,2
1596230439.347304,107,0,102771.520614375,0.4142840123272915,1.227999182420549,1.349960404615971,-0.4603713154792786,1.790092587471008,-1.096522331237793,0.6579528450965881,-0.2040532827377319,0.1822586059570312,2,-0.4073203779597021,-0.545231288752534,-0.4835626211542694,-0.5504361768063637,0.2063002288341522,-0.9757146835327148,-0.07362589985132217,-10.29003143310547,-48.596923828125,10.32525634765625,2
1596230439.360184,108,0,102771.550712375,0.4295647071958217,1.2323577433314,1.344929822917615,0.6303375363349915,-0.7144652605056763,0.80409175157547,0.4602658748626709,0.03979682922363281,-0.5910956859588623,2,-0.4003182520693187,-0.5500616449397379,-0.4877941688514233,-0.5470231378768202,0.2112470716238022,-0.9746004343032837,-0.07435496896505356,-9.9029541015625,-48.85694885253906,9.670745849609375,2
1596230439.407591,109,0,102771.580809375,0.2947257481584635,1.324397847431049,1.377971127255233,1.096276879310608,-1.396493315696716,0.2658900916576385,0.02387206256389618,0.09021449089050293,0.1934595108032227,2,-0.4262631548734875,-0.5430736388913259,-0.476041080874027,-0.5447527229311844,0.1858441382646561,-0.9814667701721191,-0.04674148932099342,-10.77806091308594,-48.31150817871094,11.34820556640625,2
1596230439.419857,110,0,102771.610907375,0.2191214252060292,1.374981345560319,1.37036873532407,0.05233768373727798,-0.4063394367694855,-0.6563571095466614,-0.1072171926498413,-0.07933574914932251,0.4442098140716553,2,-0.4324061139919875,-0.5419013207562854,-0.4646084387500634,-0.5509146035802495,0.1952836364507675,-0.979981541633606,-0.03873582184314728,-10.40065765380859,-48.27333068847656,12.50140380859375,2
1596230439.468443,111,0,102771.641004375,0.1781193011749241,1.398649347841173,1.359234236698978,0.4354084432125092,-0.5276616215705872,-0.09920322895050049,0.04891689121723175,0.01608800888061523,0.0490577220916748,2,-0.4345354257322618,-0.5414736650776861,-0.4559016220498319,-0.5569012505998103,0.2068839073181152,-0.9777041077613831,-0.03597046807408333,-9.128227233886719,-48.22010803222656,12.89627075195312,2
1596230439.480078,112,0,102771.671102375,0.1274336266384836,1.436905414921281,1.36148809824805,0.1561043262481689,-0.4226745963096619,0.02532568946480751,0.1400235444307327,4.017353057861328e-05,0.1091477870941162,2,-0.4402756183469148,-0.5406373406101319,-0.4506750779437558,-0.5574591410589075,0.2059239596128464,-0.9781748652458191,-0.02773729152977467,-8.912841796875,-48.18266296386719,13.37722778320312,2
1596230439.528878,113,0,102771.701199375,0.107971406425156,1.443870166693904,1.361250187626828,0.1996649354696274,-0.2318848371505737,-0.07405531406402588,0.06771542131900787,0.004018664360046387,0.2357440590858459,2,-0.4438905840864705,-0.5383263512325498,-0.4467202750772377,-0.5600060602633063,0.2063421905040741,-0.9781254529953003,-0.02633177861571312,-8.843582153320312,-47.97056579589844,13.82723999023438,2
1596230439.540287,114,0,102771.731296375,0.09067701660827257,1.456477639917577,1.361269373620261,-0.1251085549592972,-0.2476355731487274,0.1497913151979446,0.1142739951610565,0.02541530132293701,0.1745551228523254,2,-0.4457404163757516,-0.538007796655934,-0.4446844171486234,-0.5604630310321695,0.2066393196582794,-0.9781293869018555,-0.02372618392109871,-8.537918090820312,-48.02455139160156,14.11923217773438,2
1596230439.587344,115,0,102771.761394375,0.133362792251527,1.398547152721842,1.371481271942486,-0.1594790369272232,-0.7482476830482483,0.4947194457054138,-0.172123059630394,-0.03771454095840454,-0.07357919216156006,2,-0.4503591995355891,-0.5293470505713677,-0.4461577017417083,-0.5638364876703128,0.1950679123401642,-0.9802024364471436,-0.03393658250570297,-8.803268432617188,-48.16239166259766,14.12664794921875,2
1596230439.600544,116,0,102771.791491375,0.1557130670113681,1.359707778279878,1.377727861996526,-0.2014223337173462,-0.3723939061164856,-0.1674921661615372,-0.3477166593074799,0.04469656944274902,0.08720529079437256,2,-0.4550860223800315,-0.5222986780239836,-0.445108976702925,-0.5674316728322351,0.1876118779182434,-0.98142009973526,-0.04020160809159279,-8.921897888183594,-47.89288330078125,14.16537475585938,2
1596230439.647355,117,0,102771.821589375,0.191879050490524,1.311421924848831,1.360835642538447,-0.354294091463089,-0.3925042450428009,-0.6272843480110168,-0.07970009744167328,-0.02995860576629639,-0.07871222496032715,2,-0.4509546932418619,-0.5195308332617484,-0.4408418541436663,-0.5765293563598827,0.2014501541852951,-0.9780390858650208,-0.05345515534281731,-8.584625244140625,-48.23954772949219,13.81759643554688,2
1596230439.660796,118,0,102771.851686375,0.2139600674296824,1.281897819479974,1.345775455610224,-0.4103087484836578,-0.2721692323684692,-0.1712173968553543,0.1369026452302933,-0.0282168984413147,0.1178175806999207,2,-0.4467640665043383,-0.5182835417925952,-0.4374726770133799,-0.5834395741376364,0.2138801068067551,-0.9747894406318665,-0.06356807798147202,-7.602081298828125,-48.43243408203125,13.24847412109375,2
1596230439.706824,119,0,102771.881784375,0.2929205090459495,1.193722120079765,1.338409067279851,-0.7836370468139648,-0.4967983961105347,-0.08766200393438339,-0.136383131146431,-0.02946722507476807,0.1321342587471008,2,-0.4432781358557812,-0.5109851146765709,-0.4396119442998225,-0.5908807784882881,0.2141218334436417,-0.9731193780899048,-0.08479741215705872,-7.391555786132812,-48.39084625244141,12.7406005859375,2
1596230439.720921,120,0,102771.911881375,0.3584102088729191,1.113814607597803,1.320235534680688,-0.6140441298484802,-0.4543652236461639,-0.5478819012641907,-0.03292684257030487,0.1054408550262451,-0.02317559719085693,2,-0.4377914759201799,-0.5036232082282566,-0.4384550890532599,-0.6020459955724159,0.2225048691034317,-0.9687735438346863,-0.1094045788049698,-6.569267272949219,-49.04388427734375,11.57150268554688,2
1596230439.769,121,0,102771.941978375,0.3957906078007769,1.069520348500975,1.298881949310938,-0.7017741203308105,-0.1144014373421669,-0.2904013693332672,0.2141517251729965,-0.03314495086669922,0.04675382375717163,2,-0.4303593301146262,-0.5002593529666599,-0.4369031509760483,-0.6112667879364452,0.2355331629514694,-0.9632585048675537,-0.1290628463029861,-6.087600708007812,-49.13680267333984,11.04977416992188,2
1596230439.781059,122,0,102771.972076375,0.4692282458850097,0.9967288774284673,1.283722065951281,-0.9292430877685547,-0.1046459227800369,0.03820353746414185,0.03040792047977448,-0.07910138368606567,0.1530898809432983,2,-0.4224566372306479,-0.4946196088196509,-0.4418805101074647,-0.6177567335633045,0.2377584725618362,-0.9590764045715332,-0.1537636667490005,-5.717185974121094,-49.45922088623047,9.73992919921875,2
1596230439.82678,123,0,102772.002173375,0.5465406625621173,0.9164748195672064,1.26822930501566,-0.76790851354599,-0.4563673436641693,-0.09220454841852188,-0.06646516919136047,0.1340327262878418,-0.03095132112503052,2,-0.4154479675886771,-0.4865460759447073,-0.4473480690392984,-0.6249444947096381,0.2364288866519928,-0.9545747637748718,-0.1813518106937408,-5.95928955078125,-49.51557922363281,8.766021728515625,2
1596230439.841252,124,0,102772.032271375,0.5835674622278249,0.8601114956876392,1.25276931473167,-0.5116550326347351,-0.7468331456184387,-0.1136841773986816,0.06322547793388367,0.02863138914108276,-0.2485785484313965,2,-0.4131547897281559,-0.476770423686678,-0.445905405084851,-0.634949904255631,0.2369947582483292,-0.9498541951179504,-0.2039861679077148,-5.36639404296875,-49.70449066162109,7.431671142578125,2
1596230439.885925,125,0,102772.062368375,0.6194430294324945,0.8078630326651149,1.24434903632193,-0.4328020513057709,-0.4568816721439362,0.103583924472332,-0.09762242436408997,0.01773446798324585,0.0422898530960083,2,-0.4130553056833424,-0.4675289199355673,-0.4459105923287165,-0.6418455337339249,0.231791228055954,-0.947187602519989,-0.22160404920578,-5.331199645996094,-49.85474395751953,6.96142578125,2
1596230439.901499,126,0,102772.092466375,0.642544523639705,0.7742235830068267,1.231463831714947,-0.5505995750427246,-0.4683422744274139,-0.3655737638473511,-0.1288229823112488,0.02060741186141968,0.01705068349838257,2,-0.4101377518587529,-0.461298695498763,-0.4455879319989338,-0.6484148238313865,0.2327209562063217,-0.9429770708084106,-0.2379810810089111,-5.300254821777344,-49.93797302246094,6.22479248046875,2
1596230439.946869,127,0,102772.122563375,0.6537286143147203,0.7504316748612078,1.213122391715185,-0.4581095576286316,-0.2558341920375824,-0.178192213177681,0.01322910189628601,0.0007698535919189453,-0.06557756662368774,2,-0.4056291721494499,-0.455451223068113,-0.4432922901598554,-0.6569025466304783,0.2387495636940002,-0.936713695526123,-0.2560583055019379,-4.887351989746094,-50.04159545898438,5.759552001953125,2
1596230439.961995,128,0,102772.152661375,0.6771655643455201,0.7267171354124996,1.202086033037604,-0.5221500396728516,0.09500850737094879,-0.02295335382223129,0.02239127457141876,0.028961181640625,0.01990938186645508,2,-0.4012084418881407,-0.4520540578624711,-0.4456317619368733,-0.6603720159545081,0.2394652515649796,-0.9327929615974426,-0.269357830286026,-4.311698913574219,-50.15103149414062,4.842041015625,2
1596230440.008529,129,0,102772.182758375,0.6986965096424333,0.7083990366443194,1.188960750671696,-0.4120742380619049,-0.2025167346000671,-0.1014201119542122,-0.04377642273902893,0.008399069309234619,-0.05373871326446533,2,-0.3952294128786674,-0.4497860502420959,-0.4484841651244345,-0.6635872219546255,0.2424362897872925,-0.9279822111129761,-0.2829724550247192,-4.249343872070312,-50.12470245361328,3.99658203125,2
1596230440.022136,130,0,102772.212855375,0.709334987506098,0.6888655579110664,1.179486948792478,-0.3277965784072876,-0.2276854664087296,-0.137408435344696,-0.0207708477973938,0.006258964538574219,-0.03671050071716309,2,-0.3934477364728035,-0.4449550531996158,-0.4477688904373003,-0.6683688163655264,0.2424408495426178,-0.9244104623794556,-0.294427752494812,-4.159507751464844,-50.15766143798828,3.5892333984375,2
1596230440.06794,131,0,102772.242953375,0.7169022966613586,0.677984378912302,1.167930027417232,-0.3178487122058868,-0.0808880627155304,-0.1631816178560257,-0.05501598119735718,0.000278472900390625,-0.02951568365097046,2,-0.3895827370847154,-0.4422112747935172,-0.4477167809385919,-0.6724761592933797,0.2459076195955276,-0.9199410080909729,-0.3053489625453949,-3.958839416503906,-50.11074829101562,3.123748779296875,2
1596230440.082131,132,0,102772.273050375,0.7190790648702735,0.6686790343563853,1.158527959399041,-0.2211411595344543,-0.5584790110588074,-0.171549528837204,-0.03424909710884094,0.03046703338623047,-0.03963172435760498,2,-0.3874119930876629,-0.4389915412948963,-0.4462851036827115,-0.6767775778530649,0.248406857252121,-0.9162142872810364,-0.3143967390060425,-3.727333068847656,-50.15157318115234,2.731781005859375,2
1596230440.129133,133,0,102772.303148375,0.7195207791587104,0.6553762351177506,1.149113179549593,-0.2838503420352936,-0.2761261761188507,-0.1841984689235687,0.04832792282104492,-0.008019924163818359,0.009822368621826172,2,-0.3864885081306551,-0.434024857590416,-0.443515684395143,-0.6823070437506431,0.2494489997625351,-0.9124013185501099,-0.3244981169700623,-3.336219787597656,-50.31095123291016,2.26922607421875,2
1596230440.14232,134,0,102772.333245375,0.7281489650418831,0.6484808396345263,1.140369100867127,-0.2546363770961761,0.1305722147226334,-0.03249164298176765,-0.2031434774398804,-0.01232361793518066,-0.01600629091262817,2,-0.3826254418639451,-0.4328043394191445,-0.4448315979343808,-0.684399702182616,0.252014547586441,-0.9087875485420227,-0.3325563371181488,-3.164787292480469,-50.13094329833984,2.01458740234375,2
1596230440.186733,135,0,102772.363343375,0.7252692673382533,0.6559498642508946,1.130557282665059,-0.2622495293617249,0.2754262089729309,-0.4948029816150665,-0.09451603889465332,0.0468367338180542,0.04822856187820435,2,-0.3776254141883573,-0.4342136468460966,-0.4449140104488194,-0.6862281106484522,0.2599175572395325,-0.9046497941017151,-0.3377151191234589,-3.045822143554688,-50.3895263671875,1.429656982421875,2
1596230440.202465,136,0,102772.393440375,0.7094468798444465,0.6727086587391192,1.116570516486635,-0.1087456494569778,-0.1778455823659897,-0.2573000490665436,0.1550484299659729,0.03109234571456909,-0.1623619198799133,2,-0.3716867498670861,-0.4361893415484317,-0.4420383278479884,-0.6900651852664945,0.2733985781669617,-0.8986009955406189,-0.3431756496429443,-2.6063232421875,-50.29511260986328,1.14801025390625,2
1596230440.246409,137,0,102772.423537375,0.7087592461502796,0.6665253692958191,1.112846592924358,-0.1170758530497551,-0.3726041615009308,-0.01358761824667454,0.142734557390213,0.01668852567672729,-0.02220326662063599,2,-0.3716885694665089,-0.4337094884765885,-0.4404874638726513,-0.6926143044997819,0.2733384668827057,-0.8969608545303345,-0.3474873602390289,-2.303245544433594,-50.25748443603516,0.970855712890625,2
1596230440.262685,138,0,102772.45363575,0.7108919448359333,0.6504912299195168,1.108623996848487,-0.1000477746129036,-0.5218616724014282,-0.1466667801141739,-0.01302343606948853,-0.01878142356872559,-0.01570022106170654,2,-0.3730337837830169,-0.4282846652423431,-0.4380652057709461,-0.6967904582072841,0.2700231075286865,-0.8950859904289246,-0.3548360764980316,-2.089553833007812,-50.34828186035156,1.02032470703125,2
1596230440.306221,139,0,102772.48373275,0.705042699826898,0.64423192010862,1.100775596877758,-0.2271074652671814,-0.1923307329416275,-0.2822538018226624,-0.04161590337753296,0.04394310712814331,0.03969216346740723,2,-0.3724485176301666,-0.4245226756652422,-0.4345337502852785,-0.701600374674638,0.2720076441764832,-0.8915588855743408,-0.3621251881122589,-1.735572814941406,-50.57358551025391,0.470916748046875,2
1596230440.322953,140,0,102772.51383075,0.6948979158792361,0.6512757560314587,1.089700780768459,-0.1695715188980103,-0.01276243105530739,-0.3661914765834808,-0.03526037931442261,0.02348387241363525,-0.01065742969512939,2,-0.3685513131583552,-0.4244462398591622,-0.4317941291303371,-0.7053857667521073,0.2805200815200806,-0.8864884972572327,-0.3680306375026703,-1.571281433105469,-50.45547485351562,0.321533203125,2
1596230440.367886,141,0,102772.54392775,0.6850597806891324,0.6588950170128722,1.081216560352018,-0.09997443109750748,-0.06496872752904892,-0.1240242794156075,0.08230939507484436,0.005128800868988037,-0.01989716291427612,2,-0.36552473122496,-0.42483361080784,-0.4293173137304371,-0.7082334793094087,0.2879105806350708,-0.8825305700302124,-0.3718161582946777,-0.824005126953125,-50.12254333496094,-0.0633544921875,2
1596230440.383102,142,0,102772.57402575,0.6922412127764266,0.6513728775109404,1.079110166555248,-0.1533545553684235,-0.05597943812608719,0.1486350148916245,0.002010047435760498,-0.01446270942687988,-0.01609259843826294,2,-0.3647547484146949,-0.4233550521601995,-0.4303876572095592,-0.7088659957727359,0.2862321138381958,-0.8815380334854126,-0.3754489421844482,-0.8084869384765625,-50.68987274169922,-0.19256591796875,2
1596230440.426244,143,0,102772.60412275,0.7007215534100565,0.6421292074728187,1.077092240879515,-0.08030644804239273,-0.04927325993776321,-0.0588890016078949,-0.06347107887268066,0.01884102821350098,-0.01584428548812866,2,-0.3641277241800055,-0.4214970877210892,-0.4316194245068963,-0.7095462330716082,0.2838141322135925,-0.8805835843086243,-0.3795024156570435,-0.9184951782226562,-50.31333160400391,-0.381866455078125,2
1596230440.44324,144,0,102772.63421975,0.6953286255115827,0.6459213750550153,1.073372212673022,-0.03486526384949684,-0.02682343125343323,-0.1905467361211777,0.007828354835510254,0.04985439777374268,-0.0127633810043335,2,-0.3629201611836337,-0.4216285907472258,-0.4302274643403419,-0.7109307373197897,0.2872210144996643,-0.8788145780563354,-0.3810365796089172,-0.9167556762695312,-50.16645050048828,-0.508026123046875,2
1596230440.488395,145,0,102772.66431775,0.6874123472849376,0.6511800553928132,1.069300987317615,-0.01816698163747787,-0.09407444298267365,-0.1425982713699341,0.02321293950080872,-0.01404190063476562,-0.02773028612136841,2,-0.3617876087022412,-0.4218151009350181,-0.4281718240449846,-0.7126363400947315,0.2913870215415955,-0.8768646717071533,-0.382363498210907,-0.4827651977539062,-50.25006103515625,-0.40374755859375,2
1596230440.503496,146,0,102772.69441475,0.6822106834724515,0.6511309707466468,1.067961352361521,0.182520717382431,-0.336962103843689,-0.06949631124734879,-0.0293387770652771,-0.002794027328491211,-0.01831525564193726,2,-0.3623427085105738,-0.4207752331776453,-0.4262423081556294,-0.7141242980803946,0.2920800447463989,-0.8762198686599731,-0.383311927318573,-0.2953414916992188,-50.3427734375,-0.36004638671875,2
1596230440.546797,147,0,102772.72451275,0.6711806839420652,0.6532158050904513,1.071707143262063,0.06062386929988861,-0.04774179309606552,-0.0987977460026741,0.01788115501403809,0.05080282688140869,0.02711236476898193,2,-0.3657591970847379,-0.4197305918037509,-0.4228677375506504,-0.7150029571164944,0.2908816933631897,-0.878018856048584,-0.3800928890705109,-0.2582321166992188,-50.25110626220703,-0.12384033203125,2
1596230440.563835,148,0,102772.75460975,0.6713809257665354,0.6568365859786576,1.065935877386779,-0.2263516634702682,0.2079630345106125,-0.06366181373596191,0.01170873641967773,0.004820883274078369,0.008725941181182861,2,-0.3625753600787558,-0.4207341756824144,-0.4233027627721583,-0.7157768573795158,0.295345276594162,-0.8752419948577881,-0.3830437362194061,-0.1034774780273438,-50.32066345214844,-0.131072998046875,2
