loggingTime,loggingSample,identifierForVendor,motionTimestamp_sinceReboot,motionYaw,motionRoll,motionPitch,motionRotationRateX,motionRotationRateY,motionRotationRateZ,motionUserAccelerationX,motionUserAccelerationY,motionUserAccelerationZ,motionAttitudeReferenceFrame,motionQuaternionX,motionQuaternionY,motionQuaternionZ,motionQuaternionW,motionGravityX,motionGravityY,motionGravityZ,motionMagneticFieldX,motionMagneticFieldY,motionMagneticFieldZ,motionMagneticFieldCalibrationAccuracy
1596230589.690018,1,0,102921.865727625,2.099214249166212,-0.9878892332291525,1.144873008579996,-0.1670799255371094,0.1754237860441208,0.003140287706628442,0.01087194681167603,0.0075417160987854,0.05117589235305786,2,0.583081334883259,0.2151812297284414,0.5139724277418199,0.5912238670993009,-0.3449349105358124,-0.9106576442718506,-0.2274263948202133,-29.30777740478516,-42.30635070800781,9.831512451171875,2
1596230589.704202,2,0,102921.895826625,2.094307902930986,-0.9822114487587735,1.146919728175909,0.1394694298505783,-0.07852959632873535,-0.1959351599216461,-0.09826171398162842,0.04671198129653931,-0.1024638414382935,2,0.5823027317291022,0.216218881241266,0.5135487379089404,0.5919803007952824,-0.3420870304107666,-0.9115013480186462,-0.2283458411693573,-29.25956726074219,-42.35103607177734,9.78607177734375,2
1596230589.734443,3,0,102921.925924625,2.097161157642794,-0.9829499755216762,1.153206842531839,0.1287759691476822,0.1305431425571442,-0.07726459950208664,-0.01079878211021423,0.005934596061706543,-0.03316199779510498,2,0.5826443739509014,0.2192492530007593,0.5122504456840289,0.5916543394674503,-0.3374801278114319,-0.9140691757202148,-0.2249106019735336,-28.67549896240234,-42.34972381591797,9.88616943359375,2
1596230589.764355,4,0,102921.956023625,2.10068119005054,-0.98219702762474,1.157850093407343,0.1634146869182587,0.1198160499334335,-0.1430993974208832,-0.02808693051338196,-0.006509840488433838,-0.06689631938934326,2,0.582398306753656,0.2222819285817474,0.5120840768902004,0.5909086338112662,-0.3337771892547607,-0.9159424304962158,-0.222805917263031,-28.8216552734375,-42.59903717041016,10.06842041015625,2
1596230589.794607,5,0,102921.986122625,2.104846888235594,-0.9869678073142211,1.164091406305291,0.2202077209949493,-0.09396590292453766,-0.1469073891639709,0.0727897584438324,0.03200650215148926,-0.08950352668762207,2,0.5835913257901036,0.2244848614436342,0.5100023283878006,0.590699053014463,-0.3300598859786987,-0.9184293150901794,-0.2180554270744324,-28.75094604492188,-42.57639312744141,10.23779296875,2
1596230589.828017,6,0,102922.016220625,2.12066409870884,-1.006749848822338,1.167572238203879,0.2137129157781601,-0.3556740581989288,0.1522881388664246,0.04759207367897034,0.02703350782394409,-0.01011443138122559,2,0.5870782961906761,0.2246157664978048,0.5078037157790486,0.5890860321674561,-0.3316050469875336,-0.9198006987571716,-0.2097736597061157,-28.60595703125,-42.75212860107422,10.52444458007812,2
1596230589.854873,7,0,102922.046319625,2.131795035398265,-1.029258746348309,1.170825717635543,0.1697316467761993,-0.3368442356586456,-0.1325102299451828,-0.005407899618148804,-0.002637505531311035,0.02832430601119995,2,0.5917182272962328,0.2225146982818272,0.5034421261420564,0.5889846392942322,-0.333676278591156,-0.9210724234580994,-0.2007135003805161,-28.50630187988281,-42.61963653564453,11.07339477539062,2
1596230589.886198,8,0,102922.076418625,2.133705666379797,-1.042119059543161,1.177419333939895,0.1120927706360817,-0.3535697162151337,-0.09983133524656296,0.04021245241165161,0.02199375629425049,0.01933765411376953,2,0.5950874588605706,0.2218147755175099,0.4981439061137714,0.59035737267731,-0.3309783935546875,-0.9236198663711548,-0.1933382451534271,-28.20820617675781,-42.56803894042969,11.37802124023438,2
1596230589.915128,9,0,102922.106517625,2.140865971400157,-1.058663931212669,1.178187013693735,0.09441856294870377,-0.2096803188323975,0.02651117369532585,-0.1281160116195679,0.003859341144561768,0.03522795438766479,2,0.5984451571995371,0.2193606686865127,0.4950822663124382,0.5904557161633791,-0.3335136473178864,-0.9239138960838318,-0.1874885857105255,-27.85452270507812,-42.68746948242188,12.0784912109375,2
1596230589.947665,10,0,102922.136615625,2.145478990472449,-1.064843905676641,1.182659269439173,0.1426360607147217,-0.01059677638113499,-0.1960970461368561,-0.1256866157054901,0.0408935546875,-0.02549183368682861,2,0.5996784599580254,0.2206264895507218,0.4932002233839589,0.5903077258047231,-0.3310480713844299,-0.9256157279014587,-0.1834193915128708,-27.86367034912109,-42.74961853027344,11.99777221679688,2
1596230589.9753,11,0,102922.166714625,2.148570958128213,-1.068049369999098,1.190309140933141,0.1666079163551331,-0.003267581574618816,-0.1818122267723083,0.01254481077194214,0.001457452774047852,-0.03032183647155762,2,0.600471180769347,0.2235266934266354,0.4907638801519583,0.5904414617285439,-0.3254202902317047,-0.9284838438034058,-0.1789403557777405,-27.73439788818359,-42.78985595703125,12.33999633789062,2
1596230590.010811,12,0,102922.196813625,2.153195950160195,-1.072546602285451,1.194837144934363,0.07663396000862122,-0.06813061237335205,-0.04698411747813225,0.0264255702495575,0.02921456098556519,0.04589664936065674,2,0.6012496966885693,0.2253147625093039,0.4893615073126739,0.5901334605726947,-0.3225253522396088,-0.930155873298645,-0.1754641234874725,-27.46469116210938,-42.88497161865234,12.472412109375,2
1596230590.0357,13,0,102922.226911625,2.162989221086717,-1.084634605549193,1.199555244703575,0.3833294212818146,-0.09960001707077026,-0.1260619461536407,-0.04600289463996887,-0.003235101699829102,-0.06403028964996338,2,0.6032823497341276,0.2264956182013561,0.4871313367596397,0.5894516945872561,-0.3207390308380127,-0.9318778514862061,-0.1695002764463425,-27.47061920166016,-43.04481506347656,12.58697509765625,2
1596230590.067906,14,0,102922.257010625,2.173463761245474,-1.102846252711827,1.204968813030745,-0.02857300266623497,-0.3618601560592651,-0.1092290952801704,0.003498315811157227,0.0414968729019165,0.1286240816116333,2,0.6067016020299625,0.2263546151773666,0.4830106585975121,0.5893874970910378,-0.3192655146121979,-0.9338280558586121,-0.1613535135984421,-26.87889099121094,-42.71485900878906,13.4400634765625,2
1596230590.095526,15,0,102922.287109625,2.170314121091458,-1.113978181510479,1.207673904791137,-0.002858041785657406,-0.6343551278114319,-0.02516717463731766,0.01410782337188721,-0.01738584041595459,-0.08562189340591431,2,0.6098138245890965,0.2231363088944908,0.4778445927329883,0.5916095437575152,-0.3187733292579651,-0.9347923398017883,-0.1566745787858963,-26.76753234863281,-42.61798858642578,13.6341552734375,2
1596230590.126297,16,0,102922.317207625,2.174237483331352,-1.13659637078558,1.207864219929464,0.1966268569231033,-0.6148920059204102,0.02455118484795094,0.03789994120597839,0.01797622442245483,-0.1024459600448608,2,0.6147579154233471,0.217710032149767,0.4720222229115238,0.5931863026439854,-0.3220735788345337,-0.9348598718643188,-0.1493500918149948,-26.71475219726562,-43.18616485595703,14.05862426757812,2
1596230590.15584,17,0,102922.347306625,2.185053144712289,-1.163350264239854,1.207672453067684,-0.01482117082923651,-0.6252214312553406,0.1132866963744164,0.06690233945846558,0.04372459650039673,-0.07786619663238525,2,0.6198697311951095,0.213038573058234,0.467033728287565,0.5935113166653004,-0.326118528842926,-0.9347918033599854,-0.1407521665096283,-26.52116394042969,-42.78145599365234,14.64132690429688,2
1596230590.186309,18,0,102922.377405625,2.191388815162463,-1.190429340215609,1.205082722321041,0.07792484015226364,-0.7166634798049927,0.09488255530595779,0.08923333883285522,-0.06893593072891235,0.01461225748062134,2,0.6254459774264461,0.2059922802104442,0.4612996353461375,0.5946320722219004,-0.3320567607879639,-0.9338688254356384,-0.1327690184116364,-26.35961151123047,-42.87126922607422,15.3433837890625,2
1596230590.216137,19,0,102922.407503625,2.198942923790338,-1.216858410568073,1.200318553177145,-0.0512971393764019,-0.6375039219856262,0.291240394115448,-0.02112790942192078,-0.07735675573348999,0.0211174488067627,2,0.6306887385806506,0.1987147152981294,0.456742480688594,0.5950887648235603,-0.3396188914775848,-0.9321544766426086,-0.125488355755806,-26.3106689453125,-42.6732177734375,15.850830078125,2
1596230590.246798,20,0,102922.437602625,2.206063486666923,-1.239781755908132,1.191532438417225,0.0153602147474885,-0.4471418261528015,0.2774648070335388,-0.09595981240272522,-0.008596301078796387,-0.131208062171936,2,0.6351449557283864,0.190858159656429,0.4543555341182448,0.5947480916444046,-0.3501381874084473,-0.9289374351501465,-0.1203280985355377,-26.32085418701172,-42.45447540283203,16.3365478515625,2
1596230590.276257,21,0,102922.467701625,2.209792446653451,-1.257859658063614,1.184606590888144,-0.1644182950258255,-0.566378653049469,0.2255333065986633,-0.0568402111530304,-0.02292132377624512,-0.1195261478424072,2,0.6388551633081412,0.1840807753926073,0.4518656533057555,0.5948072776442339,-0.3583682477474213,-0.9263509511947632,-0.1159566938877106,-26.24919891357422,-42.23313903808594,16.35336303710938,2
1596230590.309142,22,0,102922.497799625,2.180393206893043,-1.266818924556276,1.165188301722962,-0.8415371179580688,-2.060283660888672,0.7284789681434631,0.03246486186981201,0.1463984251022339,-0.1541689038276672,2,0.6432832126869803,0.1647260894902455,0.4462531582215292,0.5999251678159729,-0.376487672328949,-0.9188626408576965,-0.1181040480732918,-26.34915161132812,-42.30787658691406,16.56704711914062,2
1596230590.336466,23,0,102922.527898625,2.152702827742227,-1.310001816678354,1.144241568922582,-0.169531986117363,-2.174362659454346,0.3269778192043304,0.1583059728145599,0.3050072193145752,0.05237674713134766,2,0.6545685296315865,0.1349050028596453,0.4303935760270545,0.6067142277330373,-0.3997465968132019,-0.9103965759277344,-0.1066813617944717,-26.22712707519531,-42.14057159423828,17.00735473632812,2
1596230590.366454,24,0,102922.557997625,2.153788353865006,-1.37254490997925,1.135983992481174,-0.04461310803890228,-1.762994289398193,0.2836500108242035,0.01685309410095215,-0.05044680833816528,0.2507493495941162,2,0.6676108119086529,0.113194562163645,0.412610533835967,0.609291041012801,-0.4129896461963654,-0.9069491028785706,-0.08296559005975723,-25.3165283203125,-41.93141937255859,18.548095703125,2
1596230590.39668,25,0,102922.588096125,2.162868037275297,-1.417330783082461,1.127794420730181,0.300263911485672,-0.6844711303710938,0.2388056665658951,0.03761899471282959,0.3267630338668823,0.1988300085067749,2,0.6762511916139222,0.09960677278338592,0.4028598865557932,0.6086597866025817,-0.4236156940460205,-0.9034689664840698,-0.06552563607692719,-24.88898468017578,-41.73683166503906,19.27960205078125,2
1596230590.428068,26,0,102922.618195125,2.192668250299543,-1.448676726023507,1.132062598578011,0.5012767314910889,0.3542039394378662,-0.6476147770881653,-0.265373706817627,0.4256396293640137,0.003024101257324219,2,0.6810076011325219,0.1017608273446969,0.3999524720084844,0.6049060998526414,-0.4216298460960388,-0.9052903056144714,-0.05174676328897476,-24.64901733398438,-41.67864990234375,20.36734008789062,2
1596230590.456778,27,0,102922.648294125,2.258216150612433,-1.498920174548785,1.16734877728534,1.061235189437866,0.01396608352661133,-1.018338203430176,-0.1776872575283051,-0.8896661400794983,-0.372535228729248,2,0.6863584558759075,0.1217177912441611,0.3917533840190899,0.6005216834475401,-0.3915781378746033,-0.9197129607200623,-0.02819369919598103,-23.58486175537109,-41.58070373535156,21.33917236328125,2
1596230590.48918,28,0,102922.678392125,2.309263121007919,-1.547744495033801,1.185206050806195,0.6602987051010132,0.2886670827865601,-0.1959704756736755,0.2859292030334473,0.137478232383728,0.0749591588973999,2,0.6917397125204512,0.131002211274487,0.3848184914291034,0.5968664413116402,-0.3760068118572235,-0.9265766143798828,-0.008669181726872921,-22.86354064941406,-41.44252777099609,21.98272705078125,2
1596230590.516976,29,0,102922.708491125,2.374070128942702,-1.585966882435837,1.194002049575308,0.751369833946228,0.6139695048332214,-0.5901578664779663,-0.1452320516109467,0.2833425998687744,-0.05261492729187012,2,0.6940554731391942,0.1451820745414745,0.3881734520461346,0.5886685628757957,-0.3678995668888092,-0.9298489093780518,0.005581669043749571,-22.84442138671875,-41.17697906494141,22.739501953125,2
1596230590.54706,30,0,102922.738590125,2.432146432964936,-1.638635959917085,1.220909348193243,0.5836883783340454,0.05842345580458641,-1.007856488227844,0.04958692193031311,-0.1105133891105652,0.09289491176605225,2,0.6973683887643862,0.1590466586463524,0.3791031322781668,0.587079441717797,-0.3420030474662781,-0.939411461353302,0.02323701791465282,-22.27645874023438,-41.16353607177734,23.16372680664062,2
1596230590.577166,31,0,102922.768688125,2.483542874986254,-1.669019208199208,1.232807484380382,0.4323480725288391,0.5634331107139587,0.1936946511268616,0.3281528055667877,-0.1674667000770569,0.065940260887146,2,0.6976116649109514,0.1720368308301723,0.3801484541631742,0.5824331958894481,-0.3299920558929443,-0.9434234499931335,0.03251741081476212,-21.66703033447266,-40.99121856689453,23.7840576171875,2
1596230590.608383,32,0,102922.798787125,2.519146416372771,-1.701537894582257,1.223319595964853,0.3973618745803833,-0.2184467911720276,0.07542456686496735,0.05118674039840698,0.09523141384124756,0.1038891077041626,2,0.7018684418295138,0.1719820115526622,0.3817222543796092,0.5762733971361423,-0.3376202881336212,-0.9402349591255188,0.04439424350857735,-21.74745178222656,-40.7650146484375,23.94735717773438,2
1596230590.637433,33,0,102922.828886125,2.547363111274861,-1.729003359489037,1.22522560836632,0.2248181402683258,0.2573419511318207,-0.1135263442993164,-0.2026897370815277,-0.1625810861587524,0.08762228488922119,2,0.7044092414990685,0.1746167894015965,0.3796599902450982,0.5737376936137697,-0.3345035314559937,-0.9408822655677795,0.05336680635809898,-21.75861358642578,-40.43990325927734,24.58834838867188,2
1596230590.667682,34,0,102922.858984125,2.566111426945633,-1.736297633218756,1.223548690145142,0.2482661753892899,0.319282054901123,0.07320784032344818,-0.1628506779670715,0.10211580991745,0.02374517917633057,2,0.7043677158017079,0.1786020879039918,0.3829031412710922,0.5703969062513432,-0.3356610536575317,-0.940312922000885,0.05606516823172569,-21.93629455566406,-40.47959136962891,24.6724853515625,2
1596230590.697628,35,0,102922.889083125,2.593187456199775,-1.755626142164191,1.224531784184053,0.293442040681839,0.2350342124700546,-0.2543243169784546,0.2010789811611176,0.055655837059021,0.1457391977310181,2,0.7054877231194105,0.1829568193236243,0.3835311675516024,0.5672017562527045,-0.3336062133312225,-0.9406470656394958,0.06237224861979485,-22.09486389160156,-40.1680908203125,24.92120361328125,2
1596230590.727532,36,0,102922.919182125,2.607410307326941,-1.762109127497252,1.225277951894823,-0.05378818511962891,0.1249849125742912,0.3149139881134033,0.3601045310497284,-0.1480369567871094,0.1948161125183105,2,0.7053130721718524,0.186369505558882,0.3850767552433354,0.5652574126388004,-0.332505851984024,-0.9409000277519226,0.06440024822950363,-22.15139007568359,-40.19247436523438,25.19607543945312,2
1596230590.757777,37,0,102922.949280125,2.593904054267148,-1.754464530218402,1.209853262836818,-0.09502892196178436,-0.5594748854637146,0.5869342088699341,0.1592272222042084,0.1220518350601196,0.04496550559997559,2,0.7072644997449814,0.1789602801254442,0.3879788424656011,0.5632253464169554,-0.3472173810005188,-0.9355642199516296,0.06449970602989197,-22.37582397460938,-39.93026733398438,24.92022705078125,2
1596230590.787831,38,0,102922.979379125,2.569225889547393,-1.7491148316306,1.196718999650051,-0.256891131401062,-0.5412980318069458,0.4412518739700317,0.04505965113639832,-0.1839401721954346,0.1762068271636963,2,0.7101528369093955,0.1676025376616376,0.3863553316121385,0.5642003142275118,-0.3596198558807373,-0.9308452010154724,0.06481532752513885,-23.01104736328125,-39.63380432128906,25.12310791015625,2
1596230590.818137,39,0,102923.009478125,2.537738517878047,-1.728620875958089,1.183394957308908,-0.4875689148902893,-0.10667734593153,0.5933226943016052,0.2530638873577118,0.06168174743652344,0.4337341785430908,2,0.7104455961611276,0.1579723153557933,0.3882708167890452,0.5652943938122983,-0.3730888664722443,-0.9258939027786255,0.05937639623880386,-23.11611938476562,-39.61624908447266,24.94464111328125,2
1596230590.848651,40,0,102923.039576125,2.455423200479165,-1.680057713583301,1.160906471987546,-1.164774298667908,-1.982005596160889,1.087175130844116,0.1731657385826111,0.1330029964447021,0.1884291172027588,2,0.7095364695161296,0.1352238947361852,0.3882225660760538,0.5723249066322151,-0.3961321413516998,-0.9171647429466248,0.04345500841736794,-23.39287567138672,-39.59477996826172,24.67361450195312,2
1596230590.878262,41,0,102923.069675125,2.352959806764946,-1.639937091352563,1.134148104246415,-1.538158655166626,-1.756424307823181,1.06305468082428,0.1523742377758026,-0.2132356762886047,0.4489706754684448,2,0.7101539478928043,0.1014381460826478,0.3804159414478214,0.58367404662617,-0.4218941330909729,-0.9061742424964905,0.02921665459871292,-23.58396148681641,-39.80313110351562,24.28738403320312,2
1596230590.908237,42,0,102923.099774125,2.214426750548808,-1.582236112240379,1.092839279679709,-2.36205792427063,-2.633316040039062,1.84398353099823,0.1580837965011597,-0.2254056930541992,0.1786210536956787,2,0.7068217223984582,0.05508133572401985,0.3720440396581344,0.599126393595712,-0.459936261177063,-0.8879364728927612,0.005261801648885012,-23.49349975585938,-40.13209533691406,23.92279052734375,2
1596230590.938321,43,0,102923.129873125,2.048414977617854,-1.545058980301551,1.023524893900851,-3.250956296920776,-4.989795207977295,2.784909963607788,0.04915976524353027,-0.4950273036956787,-0.2554740905761719,2,0.7021580251900551,-0.01668862949803906,0.3557665268723753,0.616543580193778,-0.5201871991157532,-0.8539475202560425,-0.01339119486510754,-23.99208068847656,-40.88436889648438,22.488525390625,2
1596230590.968282,44,0,102923.159971125,1.830553195287128,-1.555726359672947,0.91758454028331,-5.239815711975098,-7.233482837677002,4.073214054107666,0.5674657821655273,-1.224921345710754,0.2164309024810791,2,0.6910995028902596,-0.1334254046029809,0.3169056019306001,0.6357279081894598,-0.6076711416244507,-0.7941359877586365,-0.009158276952803135,-23.97413635253906,-41.60604095458984,21.30270385742188,2
1596230590.998656,45,0,102923.190070125,1.558757474814253,-1.602868798479346,0.7760468331439009,-6.565114974975586,-9.587523460388184,5.067234516143799,1.481581568717957,-0.6892125606536865,0.3331035375595093,2,0.6545915603855808,-0.2880152816234349,0.2592566265775744,0.6491095848870159,-0.7133213877677917,-0.700463593006134,0.02288582734763622,-24.62969970703125,-41.70925903320312,20.01455688476562,2
1596230591.028479,46,0,102923.220169125,1.277538136894525,-1.732502701391544,0.6443797974590456,-6.504693984985352,-10.88875961303711,5.200325965881348,1.035205245018005,0.7935260534286499,1.586116552352905,2,0.5955301359727178,-0.4579327684829791,0.1726005690153279,0.6370640091928526,-0.7890426516532898,-0.600702702999115,0.1287171244621277,-24.93295288085938,-42.11106109619141,18.25433349609375,2
1596230591.059095,47,0,102923.250267125,0.999085444107183,-1.889919650582696,0.5284356299888765,-6.761621475219727,-9.5252685546875,5.417062282562256,-0.1691681146621704,1.219079375267029,1.395075559616089,2,0.5090475685519248,-0.6134660115939332,0.08506865697795438,0.5977402414590239,-0.8199946284294128,-0.5041829943656921,0.2709399461746216,-25.65131378173828,-41.78783416748047,17.7005615234375,2
1596230591.088722,48,0,102923.280366125,0.767328522781841,-2.047533649528204,0.4968141652982291,-4.45782470703125,-7.67610502243042,1.306268453598022,-1.047540187835693,0.2733155488967896,-0.2579535245895386,2,0.4284719204457657,-0.7198020910943262,-0.005989215854742852,0.546132844250227,-0.7810826897621155,-0.4766272902488708,0.4034064710140228,-26.84359741210938,-41.57729339599609,16.38119506835938,2
1596230591.118962,49,0,102923.310465125,0.6572521273279766,-2.144726883803539,0.5440861820639095,-3.009620428085327,-2.995294332504272,0.1367330700159073,-0.2243852615356445,0.05795776844024658,-0.3040206432342529,2,0.3946286002226441,-0.7593002818796717,-0.07476532444716566,0.5119975838272887,-0.7185107469558716,-0.5176364183425903,0.4645372927188873,-25.36766815185547,-42.36991119384766,16.08981323242188,2
1596230591.148921,50,0,102923.340563125,0.5618734831371403,-2.150219791168129,0.5670792103621274,-2.394049644470215,-0.8057431578636169,1.255661845207214,0.1442615985870361,0.0202639102935791,-0.3442062139511108,2,0.3619931018649221,-0.7745188293210847,-0.1098302726293769,0.5069703048635711,-0.705800473690033,-0.5371707081794739,0.4618368446826935,-24.58745574951172,-43.90747833251953,13.81610107421875,2
1596230591.179159,51,0,102923.370662125,0.4709979181219626,-2.122267836894479,0.5892118719137978,-2.692794561386108,-1.073898911476135,-0.1022967323660851,-0.09023851156234741,-0.1607004404067993,-0.2141956090927124,2,0.3326521433603609,-0.7791914871328542,-0.1375320627232783,0.5131160949252169,-0.7081307172775269,-0.5557059645652771,0.4355936348438263,-25.34050750732422,-43.78053283691406,11.98345947265625,2
1596230591.209454,52,0,102923.400760125,0.4021778275542189,-2.110997313856949,0.6605270786468519,-3.00582480430603,-0.4543157517910004,-1.904876708984375,0.05474841594696045,-0.1141222715377808,-0.0323556661605835,2,0.3209962449233499,-0.7746148203051479,-0.183386140678084,0.5131304730496525,-0.6772243976593018,-0.6135331392288208,0.4061334133148193,-24.40637969970703,-44.96043395996094,8.044403076171875,2
1596230591.239397,53,0,102923.430859125,0.3407671073914059,-2.090651317971985,0.776412062736563,-3.141202449798584,-1.899345517158508,-3.025234699249268,0.225557267665863,0.3892074823379517,-0.09461593627929688,2,0.3228978729978373,-0.7569261933280991,-0.2439928303999086,0.5130957553827674,-0.6191816926002502,-0.700724184513092,0.3544006049633026,-22.30255126953125,-46.07379913330078,5.455841064453125,2
1596230591.269342,54,0,102923.460958125,0.3357916012105986,-2.212456028992403,0.8694392898368546,0.2272584587335587,-5.355046272277832,-1.876390218734741,0.6980509757995605,-0.06893265247344971,0.5159399509429932,2,0.321541655026315,-0.7679269969984024,-0.3033187760327675,0.4635696461263588,-0.516916036605835,-0.7639672756195068,0.3862018287181854,-17.28923034667969,-48.34387969970703,2.54022216796875,2
1596230591.299733,55,0,102923.491056125,0.4054758753815794,-2.375834973666063,0.8571513498834271,0.3271838128566742,-1.31270432472229,1.220938920974731,0.6020838022232056,0.2191756367683411,2.079492568969727,2,0.321956784616721,-0.7951592934318452,-0.3091696845544483,0.4104628963494793,-0.4536882042884827,-0.755980908870697,0.4718689322471619,-15.27489471435547,-48.83223724365234,4.336578369140625,2
1596230591.329533,56,0,102923.521155125,0.2738837179483191,-2.323265051662475,0.8306520951459977,-2.492462396621704,-1.418196678161621,3.167263746261597,-0.004228055477142334,0.5645000338554382,1.984124898910522,2,0.2736196322507107,-0.8096835295018227,-0.317022369924854,0.4111468769934037,-0.4923106133937836,-0.7383713126182556,0.4609102308750153,-16.89658355712891,-47.82521820068359,5.764373779296875,2
1596230591.359827,57,0,102923.551254125,0.1125082864082228,-2.252536940702582,0.8217897361738523,-1.725418329238892,-1.673736929893494,1.673229694366455,-0.7259502410888672,0.4612900018692017,-0.2622742652893066,2,0.2180309304487908,-0.8167002174917526,-0.3378745480988077,0.4138890290835208,-0.5287123322486877,-0.7323656678199768,0.4290734529495239,-19.64137268066406,-47.16895294189453,3.733123779296875,2
1596230591.38982,58,0,102923.5813516667,0.1128745828941183,-2.246539765289383,0.8106302651670356,1.536191582679749,1.723638653755188,-0.8759609460830688,-0.6915151476860046,0.1064351201057434,-0.1957266330718994,2,0.2170923186874487,-0.8175335012794912,-0.3324791791252995,0.4170941275117907,-0.5376194715499878,-0.7247216105461121,0.4309802055358887,-22.54131317138672,-46.57247161865234,1.83538818359375,2
1596230591.419972,59,0,102923.6114506667,0.1576979793575211,-2.223524272092403,0.8209037495875557,-0.4708981812000275,1.577775478363037,-0.6584932208061218,-0.3587577939033508,0.07536375522613525,-0.100841760635376,2,0.2409993853443704,-0.8055396113270532,-0.3246040869449502,0.4331944411957158,-0.5414518117904663,-0.7317621111869812,0.4139495491981506,-21.32390594482422,-47.11452484130859,2.043212890625,2
1596230591.449885,60,0,102923.6415496667,0.1616865480716366,-2.187940015463673,0.8401804354460867,0.2623298168182373,0.9962217807769775,-0.6870317459106445,0.2200927734375,-0.1328162550926208,-0.6607143878936768,2,0.2520821258790784,-0.7934411609743892,-0.3273259260189475,0.4469492144682811,-0.5442298054695129,-0.7447635531425476,0.3861885368824005,-21.03842926025391,-47.20389556884766,1.158416748046875,2
1596230591.480215,61,0,102923.6716476667,0.1933279807588784,-2.206389293855078,0.8566648667270015,-0.1353610903024673,-0.8252120018005371,-0.8135908842086792,0.5837922692298889,0.1085475087165833,-0.3406133651733398,2,0.2647155475860848,-0.790149480513763,-0.3294629857409014,0.4438960505334248,-0.5270605087280273,-0.7556623816490173,0.3888210356235504,-19.55561065673828,-47.80780792236328,1.3499755859375,2
1596230591.510118,62,0,102923.7017466667,0.1849626066862683,-2.248276635860198,0.8725946746500528,-0.4908890128135681,-2.196558952331543,0.174282118678093,0.6695209145545959,0.1271891593933105,-0.03154373168945312,2,0.2572451217599222,-0.7970581356953335,-0.3433463972393699,0.4250136938010414,-0.5008728504180908,-0.7659994959831238,0.4029534459114075,-18.97625732421875,-48.03618621826172,1.421234130859375,2
1596230591.54036,63,0,102923.7318456667,0.1580730027007434,-2.306742251858178,0.8748286729792264,-0.6999732851982117,-2.972305536270142,0.4219207465648651,0.4245353937149048,-0.0449867844581604,0.207406759262085,2,0.2365738488268329,-0.8119260050121002,-0.3570228334297669,0.3966656207584767,-0.4752017259597778,-0.7674336433410645,0.4303820431232452,-19.01424407958984,-47.84437561035156,1.79913330078125,2
1596230591.570434,64,0,102923.7619436667,0.09810242371740599,-2.358104566601968,0.8775836473150707,-1.04732358455658,-3.329354524612427,1.181319713592529,0.1492253541946411,-0.05914473533630371,0.139911413192749,2,0.2030355625010203,-0.8277272401402332,-0.3752425702255365,0.3644683043344511,-0.4509855210781097,-0.7691970467567444,0.4527116417884827,-19.42352294921875,-47.65436553955078,1.982452392578125,2
1596230591.600609,65,0,102923.7920426667,0.03059060222971113,-2.391711475406241,0.8715761622949113,-0.5420314073562622,-2.062456369400024,0.9408931136131287,-0.3591628670692444,0.06729048490524292,-0.05007219314575195,2,0.1674733594293609,-0.8410968667700482,-0.3876760319589171,0.3379586677835889,-0.438661128282547,-0.7653443217277527,0.4709825217723846,-21.17447662353516,-47.03125,2.381622314453125,2
1596230591.630374,66,0,102923.8221416667,0.005346637314039537,-2.410573787282019,0.8646149184126883,0.1315469294786453,-0.4949594438076019,0.1867339611053467,-0.4804354310035706,-0.05030703544616699,0.01113414764404297,2,0.1520158541764607,-0.8476171145062152,-0.3904218808274612,0.3255873943009412,-0.4332462549209595,-0.760845422744751,0.4831271767616272,-21.7044677734375,-46.73759460449219,2.705474853515625,2
1596230591.660809,67,0,102923.8522396667,0.01138606489255691,-2.413216003573762,0.8566669931658465,0.4986546039581299,0.5633828639984131,0.02080784551799297,-0.1485477685928345,-0.09184503555297852,0.04165661334991455,2,0.1527824924887045,-0.8491415082922027,-0.3862627037119307,0.326216661659834,-0.4359798729419708,-0.7556637525558472,0.4887675940990448,-22.25566101074219,-46.42035675048828,3.38018798828125,2
1596230591.690792,68,0,102923.8823386667,0.0284112540192048,-2.399109480071461,0.8298531568114297,1.464914679527283,1.509292721748352,0.6528094410896301,0.01916983723640442,-0.0620231032371521,0.198893666267395,2,0.1583413855168391,-0.8506405980297849,-0.3709071990733857,0.3372928013434898,-0.4563699662685394,-0.737832248210907,0.4973228573799133,-22.30730438232422,-46.26883697509766,3.74566650390625,2
1596230591.721103,69,0,102923.9124376667,0.05675064905935415,-2.355293891211723,0.7640359789491686,2.722612380981445,2.863686084747314,1.247995138168335,-0.1708804368972778,-0.05284106731414795,0.09004950523376465,2,0.1670773967918808,-0.8527239932301629,-0.3341280249524838,0.3651100749124129,-0.5110257863998413,-0.6918412446975708,0.5101061463356018,-23.73681640625,-45.36490631103516,4.980682373046875,2
1596230591.75129,70,0,102923.9425356667,0.1254538974318992,-2.286828131077184,0.677169343302624,3.501812696456909,4.434018135070801,0.2141537070274353,-0.5301262140274048,0.0980718731880188,0.4827232360839844,2,0.1912117373821894,-0.848067929049686,-0.277174597038384,0.4091372620414626,-0.5879542827606201,-0.6265894770622253,0.5115622878074646,-25.12883758544922,-44.77387237548828,6.126708984375,2
1596230591.78121,71,0,102923.9726346667,0.2422376170442097,-2.227102335976495,0.6315954103931207,3.476940393447876,4.162697792053223,-1.431320428848267,-0.7233993411064148,0.2080888748168945,0.3839330673217773,2,0.2391574357248885,-0.8300865164304512,-0.225925705961173,0.4502418625946109,-0.6394158005714417,-0.5904331207275391,0.4924798011779785,-26.24118804931641,-43.73278045654297,8.014556884765625,2
1596230591.811164,72,0,102924.0027336667,0.4001463104369375,-2.162939978327991,0.5906520225824584,5.197071075439453,6.469772815704346,-1.383643388748169,-0.02735203504562378,0.2234014868736267,0.8632559776306152,2,0.3018988715691076,-0.8004041651356436,-0.1624018244119605,0.491768156973923,-0.6891686916351318,-0.5569027066230774,0.4635795056819916,-25.79307556152344,-43.82906341552734,9.020355224609375,2
1596230591.841413,73,0,102924.0328316667,0.6012709991128259,-2.053205763338906,0.551372278022246,5.061341762542725,7.955126285552979,-2.485728025436401,0.7145694494247437,0.489983081817627,0.7579066753387451,2,0.3783918452019349,-0.7445821331767227,-0.07491615703323595,0.5447979102637907,-0.7545982599258423,-0.5238566398620605,0.395165890455246,-25.81480407714844,-43.58049011230469,11.9117431640625,2
1596230591.871294,74,0,102924.0629306667,0.771117506821711,-1.908427834641407,0.5870657615420959,3.23762059211731,7.42515230178833,-3.079634666442871,0.4859796762466431,0.8253131508827209,0.4988610744476318,2,0.4487283620893965,-0.6607106540813279,-0.01056295220062042,0.6016583625570093,-0.7855643630027771,-0.5539204478263855,0.2757914364337921,-24.66397857666016,-43.89899444580078,12.18392944335938,2
1596230591.901634,75,0,102924.0930296667,0.9132632259777603,-1.774092703543853,0.6135115559672778,4.216686725616455,7.110818862915039,-0.5333227515220642,-0.07879853248596191,0.004400253295898438,0.09201252460479736,2,0.4970646683641717,-0.5791944109302871,0.05542927832656397,0.643729940189423,-0.8007934093475342,-0.5757421851158142,0.1650788933038712,-24.32284545898438,-44.36201477050781,11.88922119140625,2
1596230591.931474,76,0,102924.1231276667,1.090551577606031,-1.684429798466655,0.6141693735508175,4.820402145385742,4.788447856903076,-1.731213092803955,0.3353440165519714,-0.04163968563079834,0.158134937286377,2,0.5409507004874882,-0.5036924514391595,0.1363399150834387,0.659604157249115,-0.8119816184043884,-0.576279878616333,0.09266749024391174,-26.13115692138672,-43.12857055664062,13.5877685546875,2
1596230591.961769,77,0,102924.1532266667,1.261953592791227,-1.670281857119321,0.6898972073936263,3.676852941513062,3.650803565979004,-3.546530961990356,1.105407357215881,0.830197274684906,0.4187988042831421,2,0.5948360367215542,-0.429504371777941,0.1701398570733832,0.6578363422951716,-0.7674977779388428,-0.6364579200744629,0.0766078308224678,-25.09007263183594,-42.92040252685547,15.2568359375,2
1596230591.991663,78,0,102924.1833256667,1.409351848641861,-1.645254656763432,0.7692806561485855,3.873714923858643,5.318410873413086,-2.393672704696655,0.2104927897453308,0.3846274614334106,0.1209001541137695,2,0.6345618369327448,-0.3522107556412372,0.1989751428091065,0.6585496921635242,-0.7164206504821777,-0.6956186294555664,0.05344228073954582,-22.56543731689453,-43.12561798095703,17.92767333984375,2
1596230592.02198,79,0,102924.2134236667,1.625863364621038,-1.615401888995322,0.8430205688498844,4.440322399139404,6.251566410064697,-3.352736949920654,-0.4976967573165894,-1.225075840950012,0.2889410257339478,2,0.6733334410976447,-0.2478975629084298,0.2548105323327509,0.6482595427320448,-0.6645488142967224,-0.7466558218002319,0.029662249609828,-22.48525238037109,-42.6348876953125,19.47622680664062,2
1596230592.051889,80,0,102924.2435226667,1.773394997558477,-1.579127316122571,0.9423754857439894,2.620272159576416,3.878652334213257,-2.731762647628784,0.6641781330108643,-0.5848973393440247,-0.4071011543273926,2,0.6923231900929451,-0.1521096127768306,0.2825468385223541,0.6463116120043567,-0.587847888469696,-0.8089568614959717,0.004897467792034149,-21.96747589111328,-42.28958129882812,21.4361572265625,2
1596230592.082444,81,0,102924.2736216667,1.886173522262142,-1.604310312868789,0.990542725398795,1.123237609863281,0.6030393838882446,-0.6367699503898621,0.4374340772628784,0.1683071851730347,-0.2249418497085571,2,0.7059464756010949,-0.1040415701734999,0.2943878850320634,0.635728649411087,-0.5479285717010498,-0.836323618888855,0.01837014965713024,-21.42051696777344,-42.07769012451172,22.18585205078125,2
1596230592.112154,82,0,102924.3037196667,1.943450313462486,-1.640099741554098,0.9911845738860861,1.057327389717102,0.9353349208831787,0.1103454902768135,-0.7384629249572754,0.2354362010955811,-0.1624906063079834,2,0.7141304857041294,-0.09476902902505871,0.2995381883653194,0.6255504140958533,-0.546384334564209,-0.8366753458976746,0.03792703896760941,-20.90721893310547,-41.33017730712891,23.45565795898438,2
1596230592.142372,83,0,102924.3338186667,1.998491294805194,-1.642548874112727,1.006126074623024,0.9372003674507141,1.485203623771667,-1.537793517112732,-1.225639820098877,0.3171378374099731,-0.004700064659118652,2,0.7170696930309155,-0.07066346627523307,0.3111137424651824,0.6196983823465121,-0.5337605476379395,-0.8447651267051697,0.03836454078555107,-21.59059143066406,-40.65852355957031,23.88870239257812,2
1596230592.172298,84,0,102924.3639176667,2.103154708478091,-1.692305387714399,1.072744282986598,2.304195880889893,1.880091547966003,-2.827261686325073,0.6319931745529175,-0.2105562686920166,0.4233236312866211,2,0.7268522673247407,-0.0252542525232558,0.3048310350901215,0.6149195622673416,-0.4741929173469543,-0.8785147666931152,0.05790399014949799,-20.19223785400391,-41.0028076171875,24.72518920898438,2
1596230592.202401,85,0,102924.3940156667,2.248425088311726,-1.772747002148672,1.150765874459279,0.5233997106552124,1.485672235488892,-2.727791547775269,1.349920988082886,-0.3557286262512207,1.192472219467163,2,0.7348633057509204,0.02954973284431278,0.2963223421065556,0.6093405559456637,-0.3995011448860168,-0.9130765199661255,0.08179453015327454,-18.98513793945312,-41.14479827880859,25.86398315429688,2
1596230592.232432,86,0,102924.4241146667,2.274228830125498,-1.745301410133679,1.191497671165985,0.1981540769338608,0.8377055525779724,0.1077544614672661,0.4895623326301575,-0.392230749130249,-0.1726385354995728,2,0.7269386481045627,0.06085593496133151,0.3021798664277665,0.6136320278686732,-0.3646461367607117,-0.928924560546875,0.0642864853143692,-16.83022308349609,-41.66975402832031,25.7208251953125,2
1596230592.262746,87,0,102924.4542136667,2.295966648890309,-1.771837435120966,1.167181582007635,0.3512169420719147,-0.4589198529720306,0.6870906949043274,-0.2712837159633636,0.2886275053024292,0.0613332986831665,2,0.7324201150773442,0.05267211372800273,0.3062800956233776,0.6057879032536296,-0.3848351538181305,-0.9196473360061646,0.07842715084552765,-17.41268157958984,-41.50791931152344,25.64614868164062,2
1596230592.292716,88,0,102924.4843116667,2.339695737427638,-1.807041241765325,1.168696198394001,0.6829966306686401,0.7301446795463562,-0.9968087673187256,-0.7137309312820435,0.5222156643867493,0.2576087713241577,2,0.7364535183016776,0.05860760399171461,0.3061019984293494,0.600418969771379,-0.3804815411567688,-0.920241117477417,0.09159727394580841,-17.79765319824219,-40.97261047363281,26.69125366210938,2
1596230592.32285,89,0,102924.5144106667,2.402382426873734,-1.832076991020095,1.211243074911834,0.2974872291088104,1.521545767784119,-2.082380294799805,-0.4115142226219177,0.2928378582000732,0.4289025068283081,2,0.7333196131394366,0.08767994773251403,0.3037326149765219,0.6019146172411474,-0.339914470911026,-0.9360541105270386,0.09089085459709167,-16.72339630126953,-41.17034149169922,26.74649047851562,2
1596230592.35291,90,0,102924.5445096667,2.477917934487882,-1.848428955629214,1.268690430787312,0.100927509367466,2.028972148895264,-1.564857602119446,0.5392234325408936,-0.366196870803833,0.186435341835022,2,0.7241238242909742,0.1281338787812812,0.3046839157290404,0.6053048823589853,-0.2861376404762268,-0.9547120332717896,0.08154720813035965,-15.84797668457031,-41.31854248046875,26.5380859375,2
1596230592.383088,91,0,102924.574607625,2.494961092622809,-1.824254767572803,1.287468218718922,-0.1139353662729263,0.463257372379303,-0.02196301706135273,0.524868369102478,-0.2555559277534485,-0.2263374328613281,2,0.7164746419555754,0.1473550072545141,0.3134041238916978,0.6055811269252469,-0.2706213891506195,-0.9601303935050964,0.07009882479906082,-15.88340759277344,-42.15342712402344,25.8798828125,2
1596230592.413155,92,0,102924.604706625,2.48809842659195,-1.816845703086488,1.293788896419643,-0.3089144825935364,-0.06684497743844986,-0.4069853723049164,0.2451086938381195,-0.1088107824325562,0.2415828704833984,2,0.7148967113983187,0.1490936343478027,0.3122323019444484,0.6076223572433768,-0.2652424275875092,-0.9618781208992004,0.06661243736743927,-15.83528900146484,-42.13523864746094,25.81423950195312,2
1596230592.443346,93,0,102924.634805625,2.447248825105288,-1.76745519000961,1.30329340276724,-0.2899773418903351,0.6281440258026123,0.0989382341504097,-0.1250154972076416,0.2457243800163269,0.02935028076171875,2,0.7088999235345605,0.1525926802113934,0.3146807182447792,0.6124968859133947,-0.2592291831970215,-0.9644339680671692,0.05164725705981255,-15.70321655273438,-42.64150238037109,24.94281005859375,2
1596230592.473612,94,0,102924.664903625,2.445733241937588,-1.734178156317535,1.304640767418109,0.1545010805130005,1.557316899299622,-0.564548134803772,-0.4299712181091309,0.02356582880020142,0.07353794574737549,2,0.7035144961450718,0.1626609412729926,0.3255815095268808,0.61041415634674,-0.2595215439796448,-0.9647892117500305,0.04278245568275452,-16.163330078125,-42.68440246582031,24.7513427734375,2
1596230592.503509,95,0,102924.695002625,2.452948852548251,-1.673851967234601,1.33069849410493,-0.3164182603359222,2.328329086303711,-0.7187212109565735,0.1363141536712646,-0.2780774831771851,0.2580010890960693,2,0.6894716879324346,0.1919904684029292,0.3412211402273734,0.6093740444612239,-0.2365366071462631,-0.9713147282600403,0.0244630966335535,-16.77970123291016,-42.91875457763672,23.71536254882812,2
1596230592.533468,96,0,102924.725100625,2.378482284664771,-1.552836207767428,1.338154081735385,-0.7249470949172974,1.011580586433411,0.1137533411383629,0.5144697427749634,0.169858992099762,0.1802453994750977,2,0.6748964386809968,0.2060207710534731,0.3575231105914541,0.611757747754513,-0.2305125445127487,-0.9730606079101562,-0.00414047809317708,-17.24969482421875,-43.29698944091797,22.84182739257812,2
1596230592.563771,97,0,102924.755199625,2.308350228019191,-1.473527685858724,1.335486267187928,-0.6027314066886902,-0.04646283388137817,-0.02251779101788998,0.3894647657871246,-0.09744590520858765,0.1048986911773682,2,0.6680480349313644,0.2058903770944908,0.3634617720476291,0.6158056709603499,-0.2320429235696793,-0.972442090511322,-0.02264195121824741,-17.98785400390625,-43.74739837646484,21.28848266601562,2
1596230592.593629,98,0,102924.785298625,2.210328003671331,-1.373077074272666,1.326531574669274,-0.7482900023460388,0.2779514193534851,0.468725323677063,0.08592215180397034,-0.1179426908493042,-0.1719603538513184,2,0.6601105668099841,0.2012485617378454,0.369354094909616,0.6223589519111804,-0.2371313869953156,-0.9703153967857361,-0.04750611260533333,-18.28665924072266,-44.25574493408203,20.61529541015625,2
1596230592.623943,99,0,102924.815396625,2.151385622945879,-1.306500842318491,1.305331505633448,-0.6427244544029236,0.333960235118866,0.4749966561794281,-0.05676838755607605,0.1460795402526855,0.01270139217376709,2,0.6540101662651219,0.1949434915261691,0.3797689341118495,0.6245343985586858,-0.2532476484775543,-0.9649706482887268,-0.06853547692298889,-19.33574676513672,-44.38319396972656,19.482421875,2
1596230592.653868,100,0,102924.845495625,2.088023318527999,-1.237956829659218,1.292063002326381,-0.6452937126159668,0.3496386110782623,0.1250886619091034,-0.05846047401428223,0.1286858916282654,0.05145847797393799,2,0.6469892152357035,0.190937821104819,0.3865605358049947,0.6289028071391929,-0.2600383460521698,-0.9614047408103943,-0.08989540487527847,-19.91236114501953,-44.34986114501953,18.71127319335938,2
1596230592.684075,101,0,102924.875594625,2.041693310825824,-1.174804767026813,1.282525427415255,-0.4539566934108734,0.7533385753631592,0.1561127454042435,-0.1357933580875397,-0.06124377250671387,-0.1601816415786743,2,0.6388654923960614,0.1924090662173851,0.3954001277551341,0.6312594386736607,-0.2622949182987213,-0.9587368965148926,-0.109659269452095,-20.55835723876953,-44.98554992675781,17.34640502929688,2
1596230592.71409,102,0,102924.905692625,1.989294733485244,-1.107741555851607,1.273385843556078,-0.6239946484565735,0.2917391359806061,-0.02686057053506374,0.1597955226898193,0.04228329658508301,-0.1156575679779053,2,0.630130280495999,0.193614678825402,0.4030892831741316,0.6347977238299283,-0.2621852159500122,-0.9560985565185547,-0.1308983713388443,-20.83946228027344,-44.91742706298828,16.665283203125,2
1596230592.744338,103,0,102924.935791625,1.948658895648299,-1.064307729434661,1.264292205809251,-0.3242910504341125,0.09794849902391434,0.2455325275659561,0.3063162565231323,-0.04491567611694336,-0.1020637154579163,2,0.6246716404548416,0.1913107512423997,0.4067484208800846,0.6385462800729397,-0.2638468742370605,-0.9533941745758057,-0.1463710814714432,-21.14435577392578,-45.03363800048828,15.19741821289062,2
1596230592.774412,104,0,102924.965890625,1.946281117378655,-1.05480696859799,1.252312794442752,-0.2774860858917236,0.241356149315834,0.3675395548343658,-0.04937362670898438,0.09986495971679688,-0.01727485656738281,2,0.6220746386299076,0.1891437952053409,0.4128422327811325,0.6378159578529141,-0.2723594903945923,-0.9497113823890686,-0.1544955372810364,-21.34113311767578,-45.31283569335938,15.2113037109375,2
1596230592.804583,105,0,102924.995988625,1.932873721496803,-1.039107836688529,1.240411408035345,-0.2896744608879089,0.06005365401506424,0.09242941439151764,-0.2632016837596893,0.06415891647338867,-0.07236385345458984,2,0.6191378791833333,0.1855605933330207,0.4172813316443752,0.6388363778331143,-0.2796236574649811,-0.945917546749115,-0.1644711047410965,-21.78455352783203,-44.98984527587891,14.767578125,2
1596230592.834459,106,0,102925.026087625,1.91418704529537,-1.012815215442706,1.237109157573289,-0.2561057507991791,0.5272824764251709,0.05086683481931686,0.017121821641922,0.02064812183380127,-0.0008091926574707031,2,0.6150870834153317,0.1869722284644162,0.4204812790914207,0.6402381805881157,-0.2778517007827759,-0.9448410868644714,-0.1734185367822647,-21.99130249023438,-45.00775146484375,14.07730102539062,2
1596230592.864752,107,0,102925.056186625,1.907261423149764,-0.9952014501759512,1.227467257644546,-0.08442632853984833,0.147319495677948,0.2574318647384644,-0.04127293825149536,0.08359533548355103,-0.1162089109420776,2,0.6111071115395812,0.1868962538084704,0.4267513361220522,0.6399228343381229,-0.2823832035064697,-0.941639244556427,-0.1832357794046402,-22.21634674072266,-45.02178192138672,13.7523193359375,2
1596230592.894692,108,0,102925.086284625,1.90944660924843,-0.9987681230353546,1.225220496484713,-0.1299277544021606,-0.1189396902918816,-0.05599921941757202,-0.06658101081848145,-0.006315708160400391,0.0604737401008606,2,0.6114504917933631,0.1855860563973857,0.4270775145098164,0.6397584921521395,-0.2848129868507385,-0.9408805370330811,-0.1833722293376923,-22.80261993408203,-44.95156097412109,13.54922485351562,2
1596230592.924962,109,0,102925.116383625,1.897161070167474,-0.983643363442497,1.21956529284559,-0.2610220313072205,0.3356273472309113,0.2512697279453278,0.08963218331336975,-0.08568072319030762,0.05375063419342041,2,0.6087944483892018,0.1845737846599982,0.4295597116973758,0.6409215466256513,-0.2864325046539307,-0.9389498829841614,-0.1906036734580994,-22.78044128417969,-45.00702667236328,13.405517578125,2
1596230592.954861,110,0,102925.146482625,1.886712995073906,-0.9710779955481091,1.209213082950739,-0.2845633924007416,-0.2208747714757919,0.1049333959817886,0.1203697919845581,0.07668864727020264,-0.04540300369262695,2,0.6059692126567638,0.1815753686241528,0.4333072683506408,0.6419320030668936,-0.2920236587524414,-0.9353379011154175,-0.1996634006500244,-23.14725494384766,-45.01113891601562,12.70248413085938,2
1596230592.985058,111,0,102925.176580625,1.885105600874172,-0.9823828719701804,1.203580391405327,0.02422935515642166,-0.5747604966163635,0.2646069824695587,0.1118023693561554,-0.006446659564971924,-0.05924427509307861,2,0.6079593016072949,0.175357461588399,0.4311410113640722,0.6432362355883754,-0.2986398339271545,-0.9333304762840271,-0.1992705017328262,-23.10871124267578,-45.07542419433594,12.68655395507812,2
1596230593.015275,112,0,102925.206679625,1.894160667988186,-1.001052883714765,1.192944355633873,-0.1966785490512848,-0.1399504244327545,0.4004444777965546,-0.01892265677452087,-0.01009607315063477,0.01522302627563477,2,0.6101023191618327,0.1681462529346439,0.4317286648408374,0.6427381942344921,-0.3106492757797241,-0.9294592142105103,-0.1990039944648743,-23.50658416748047,-44.96396636962891,12.82684326171875,2
1596230593.045121,113,0,102925.236778625,1.899143247692101,-1.009644313892241,1.18120906786784,-0.1259676516056061,-0.04088950902223587,0.2660796344280243,-0.2063638865947723,0.09014105796813965,-0.005667507648468018,2,0.6103501233244401,0.1625219721661402,0.434410549015312,0.6421423967809577,-0.3215605616569519,-0.9250658750534058,-0.2021186649799347,-23.75189971923828,-44.90650939941406,12.74563598632812,2
1596230593.075252,114,0,102925.266876625,1.900796727921926,-1.006469415484999,1.176590043310217,-0.04305285215377808,0.3074015378952026,0.0818987563252449,-0.06567943096160889,0.01439321041107178,-0.1168665885925293,2,0.6090503602682525,0.1623166382193771,0.4373629203088899,0.6414240885199651,-0.3245244920253754,-0.9233016967773438,-0.2054219394922256,-24.127197265625,-44.73549652099609,12.61520385742188,2
1596230593.108046,115,0,102925.296975625,1.899568149532608,-0.9966709352813433,1.170722775483352,-0.1342277526855469,0.1775483787059784,0.2067813724279404,0.01307189464569092,-0.05475592613220215,-0.06009191274642944,2,0.6063847864935381,0.162887515018773,0.4417876910754698,0.6407721369834126,-0.3270390927791595,-0.9210323691368103,-0.2115302979946136,-24.38927459716797,-44.30107116699219,12.32687377929688,2
1596230593.135463,116,0,102925.327074625,1.902184985955634,-0.995705847314627,1.163899214527317,-0.06527332216501236,0.1099923476576805,0.2145711779594421,0.04289159178733826,0.078224778175354,0.001915395259857178,2,0.6052356018796335,0.1614319942265101,0.4450525030703877,0.6399671609136613,-0.33210089802742,-0.918353259563446,-0.2152591496706009,-24.58930969238281,-44.39195251464844,11.9688720703125,2
1596230593.183016,117,0,102925.357172625,1.9056057212462,-0.9960155094377547,1.157004163739551,-0.1642069220542908,0.1239263862371445,0.1894186437129974,-0.1324171125888824,0.002820253372192383,0.0689091682434082,2,0.6042958103928383,0.159780250610122,0.4482041264356771,0.6390697171614972,-0.3374743163585663,-0.9156026244163513,-0.2185936868190765,-24.92588806152344,-44.24153900146484,11.97549438476562,2
1596230593.195695,118,0,102925.387271625,1.899083423403482,-0.9817264881830243,1.151808678050412,-0.07254783809185028,0.3179427087306976,0.02001474052667618,0.003304749727249146,0.009296059608459473,-0.0374564528465271,2,0.6010368668148452,0.1604308731456398,0.4520411332340192,0.6392773922704353,-0.3382671177387238,-0.9135012626647949,-0.2260332405567169,-25.06478118896484,-44.15692138671875,11.5980224609375,2
1596230593.246561,119,0,102925.417369625,1.896676191815635,-0.9737054081204879,1.151617154486732,-0.08900085091590881,0.01166477985680103,-0.01298715174198151,0.1357885301113129,0.01022422313690186,0.05149173736572266,2,0.5993932644533377,0.1622000841114904,0.4537384255419535,0.6391717738682758,-0.3365880846977234,-0.9134233593940735,-0.2288376986980438,-25.36610412597656,-44.11725616455078,11.18893432617188,2
1596230593.255872,120,0,102925.447468625,1.894214290337622,-0.9779474866690934,1.146321548359339,-0.06769032031297684,-0.2832047045230865,0.1928737461566925,0.07042694091796875,-0.0262296199798584,0.03207230567932129,2,0.5999544370781734,0.1581174222999054,0.4533192659040634,0.6399651140043742,-0.3415625393390656,-0.9112551808357239,-0.2301071137189865,-25.38739776611328,-44.34609985351562,11.17678833007812,2
1596230593.288006,121,0,102925.477567625,1.896415002153008,-0.9852393373376316,1.143262039213937,-0.1309355050325394,-0.08306683599948883,0.1416003257036209,0.0003601610660552979,0.009293079376220703,0.00745093822479248,2,0.6010890861814567,0.1552961196441832,0.4527810701332783,0.6399721773524357,-0.3455531299114227,-0.9099908471107483,-0.2291500568389893,-25.68804168701172,-44.23444366455078,11.21319580078125,2
1596230593.315966,122,0,102925.507665625,1.900854867667729,-0.9886582222649152,1.137199117075247,0.01776711270213127,0.009365460835397243,0.218135803937912,-0.01379045844078064,0.02131551504135132,-0.0772864818572998,2,0.6008440808302641,0.1532585122404138,0.4550487712439446,0.6390843559824613,-0.3509364724159241,-0.9074602723121643,-0.2309964448213577,-25.86314392089844,-44.26773834228516,10.99676513671875,2
1596230593.365375,123,0,102925.537764625,1.909097682597646,-0.9996902432260332,1.13334338086021,-0.05404451861977577,-0.1969782263040543,0.1662303805351257,0.02342969179153442,0.02238261699676514,0.02979099750518799,2,0.6023035532046558,0.150764891800862,0.4555538939958044,0.6379429001781414,-0.3564046621322632,-0.9058336019515991,-0.2290007472038269,-26.13786315917969,-44.0078125,11.1356201171875,2
1596230593.376255,124,0,102925.567863625,1.913246849781935,-1.006417772494857,1.12778342172478,-0.006240081042051315,-0.07846409827470779,0.1502768099308014,-0.05104666948318481,0.03322553634643555,-0.07573747634887695,2,0.6029246630597519,0.1477761161305129,0.4565672454112426,0.6373306832785677,-0.3621867895126343,-0.9034642577171326,-0.2292881458997726,-26.23596954345703,-44.10240936279297,11.1715087890625,2
1596230593.426548,125,0,102925.59796125,1.913947497515933,-1.0108030000105,1.125940730077303,-0.02489384636282921,-0.1411304324865341,-0.001882129115983844,-0.07048279047012329,0.02937132120132446,-0.02257454395294189,2,0.6036751218111127,0.1458954182952321,0.4560368369094248,0.6374334617676587,-0.3645989298820496,-0.9026728272438049,-0.2285817414522171,-26.05547332763672,-43.71188354492188,11.39788818359375,2
1596230593.436566,126,0,102925.62806025,1.915382616143515,-1.013741104267528,1.12617684686111,0.04755145311355591,-0.01568841747939587,0.005995676852762699,-0.0628000795841217,0.03551703691482544,-0.02507293224334717,2,0.6042654572212414,0.1454814845808611,0.4555339587950472,0.6373282433214583,-0.3650879561901093,-0.9027743935585022,-0.2273967862129211,-26.42658996582031,-43.82280731201172,11.29217529296875,2
1596230593.488805,127,0,102925.65815925,1.917474641434522,-1.016565275570313,1.126285868690125,0.08234133571386337,-0.007081969641149044,0.01778936199843884,-0.07930988073348999,0.01524007320404053,0.002087652683258057,2,0.6047680771454012,0.1452550988018644,0.4553131911372449,0.6370608737374186,-0.3656450808048248,-0.9028213024139404,-0.226313054561615,-26.15565490722656,-43.80412292480469,11.412841796875,2
1596230593.49683,128,0,102925.68825725,1.923208543728357,-1.016292372565736,1.127077704271601,0.04717409238219261,0.3688879907131195,-0.007628217339515686,-0.01080524921417236,-0.004022419452667236,0.06183505058288574,2,0.6043697556164134,0.1473738342919555,0.4569754727879437,0.6357606754152925,-0.3649753332138062,-0.9031615257263184,-0.2260363101959229,-26.18304443359375,-43.84244537353516,11.3555908203125,2
1596230593.5457,129,0,102925.71835625,1.926157357293833,-1.007700511619513,1.126369676172595,0.03095234557986259,0.2577414810657501,0.09069931507110596,0.006849288940429688,0.02325713634490967,-0.01635962724685669,2,0.6021043396960704,0.1507243329766815,0.4607219751321654,0.6344193561116648,-0.3635605275630951,-0.9028573036193848,-0.2295050770044327,-26.4195556640625,-43.84379577636719,11.35757446289062,2
1596230593.556942,130,0,102925.74845525,1.936210572365499,-1.013309167176393,1.124295315871961,0.1397661119699478,0.04818984866142273,0.1421013325452805,0.03612586855888367,0.004346013069152832,-0.03587430715560913,2,0.6024240179783595,0.1511915836237876,0.4628568545704571,0.6324477298751172,-0.3664306104183197,-0.9019635319709778,-0.2284528166055679,-26.653076171875,-43.84706115722656,11.20166015625,2
1596230593.607256,131,0,102925.77855325,1.946706343647706,-1.024226240469649,1.123556303569343,0.1081497818231583,-0.1373061537742615,0.02935532107949257,2.41696834564209e-05,-0.02002537250518799,0.03636598587036133,2,0.6040843922281895,0.1506302278211447,0.4631065302259812,0.6308129224456707,-0.3694718778133392,-0.9016441702842712,-0.2247851639986038,-26.89495086669922,-43.47055053710938,11.29782104492188,2
1596230593.617094,132,0,102925.80865225,1.955960404105016,-1.04045593169092,1.123703785355708,0.1301822811365128,-0.3499166369438171,0.1292284578084946,0.01883071660995483,0.04215800762176514,0.00070953369140625,2,0.6071567811515575,0.1483730026489198,0.4610631598301941,0.6298943796999801,-0.3729566037654877,-0.9017079472541809,-0.2186921834945679,-26.87057495117188,-43.62641906738281,11.58975219726562,2
1596230593.664848,133,0,102925.83875125,1.96442599241533,-1.052759583377046,1.120243426150259,-0.08337090164422989,0.06698809564113617,0.1755128353834152,-0.008546650409698486,-0.008161306381225586,0.03981184959411621,2,0.6090459980728808,0.1457656449342929,0.4610557521633083,0.6286834625803133,-0.3783274292945862,-0.900206446647644,-0.2156306952238083,-26.83792114257812,-43.38692474365234,11.9156494140625,2
