loggingTime,loggingSample,identifierForVendor,motionTimestamp_sinceReboot,motionYaw,motionRoll,motionPitch,motionRotationRateX,motionRotationRateY,motionRotationRateZ,motionUserAccelerationX,motionUserAccelerationY,motionUserAccelerationZ,motionAttitudeReferenceFrame,motionQuaternionX,motionQuaternionY,motionQuaternionZ,motionQuaternionW,motionGravityX,motionGravityY,motionGravityZ,motionMagneticFieldX,motionMagneticFieldY,motionMagneticFieldZ,motionMagneticFieldCalibrationAccuracy
1596230380.681673,1,0,102712.860194875,0.8966947137483395,0.406745520198014,1.222788998757195,-0.1394233703613281,0.01130047906190157,-0.08508037030696869,-0.07156801223754883,0.004881799221038818,0.009176015853881836,2,-0.4349259466345874,-0.3927320366657884,-0.4521130838253126,-0.6724541848305056,0.1349171847105026,-0.9400541186332703,-0.3132019340991974,-7.350845336914062,-50.05442810058594,4.01055908203125,2
1596230380.699902,2,0,102712.890293875,0.8905272120696992,0.413831480738523,1.222986492577311,0.06041273847222328,0.1230815798044205,-0.0109740998595953,0.01184827089309692,0.04897171258926392,0.004928886890411377,2,-0.4346142100971827,-0.393797662055776,-0.4515708514908198,-0.6723967573666046,0.1370583176612854,-0.9401214718818665,-0.3120677769184113,-7.373161315917969,-49.93114471435547,4.074951171875,2
1596230380.729761,3,0,102712.920391875,0.8926449594822212,0.4123446754847178,1.222770025179715,-0.03810285404324532,-0.07156713306903839,0.0129182580858469,0.009458839893341064,-0.01453393697738647,-0.01181107759475708,2,-0.434449326517492,-0.3937318558464439,-0.451969427590501,-0.6722741881789539,0.1366758942604065,-0.9400476813316345,-0.3124580085277557,-7.545753479003906,-50.00334167480469,3.878448486328125,2
1596230380.760072,4,0,102712.950489875,0.8922391536550455,0.409697202180335,1.222983760800117,0.02262363582849503,-0.1083203703165054,-0.01597121730446815,0.02136528491973877,0.02986645698547363,-0.03186529874801636,2,-0.4352096142816371,-0.3927790621091154,-0.4512475801840147,-0.6728244382959652,0.1357681304216385,-0.94012051820755,-0.3126344084739685,-7.451713562011719,-49.86688232421875,3.977325439453125,2
1596230380.790149,5,0,102712.980588875,0.8914136659385887,0.4091935591301517,1.223677945435087,0.04689153283834457,0.01152529194951057,0.02052121609449387,0.01832440495491028,-0.008544623851776123,-0.002526164054870605,2,-0.4357537552996462,-0.39251331774086,-0.4508281524330414,-0.6729084915874251,0.1353509724140167,-0.9403569102287292,-0.3121039271354675,-7.614006042480469,-49.99954986572266,4.15850830078125,2
1596230380.820199,6,0,102713.010686875,0.8914108663660376,0.4095630102573575,1.225328606573606,0.0513385608792305,-0.01556147448718548,-0.00449148565530777,0.01869681477546692,0.020069420337677,-0.002479612827301025,2,-0.4363092880781748,-0.392834991555801,-0.4508313785850843,-0.6723584652952004,0.134848028421402,-0.9409171938896179,-0.3106297552585602,-7.444992065429688,-49.82321929931641,4.0933837890625,2
1596230380.850186,7,0,102713.040785875,0.891464390216979,0.4088156391381234,1.226161291574748,-0.008675499819219112,-0.02717750892043114,0.09448948502540588,0.06751140952110291,-0.001343250274658203,-0.0003290176391601562,2,-0.4367890653027482,-0.3926952380157647,-0.4506475400854013,-0.672251872156167,0.1343043893575668,-0.9411988258361816,-0.3100115358829498,-7.432136535644531,-50.02174377441406,4.2283935546875,2
1596230380.880464,8,0,102713.070883875,0.9074464942601604,0.3934857289271202,1.228574886141538,0.01580287888646126,0.01718781143426895,0.2439776360988617,-0.01638725399971008,-0.004624009132385254,-0.03940832614898682,2,-0.4380488103063142,-0.3913385197451776,-0.4525425634677095,-0.6709490250335752,0.1286649405956268,-0.9420115351676941,-0.3099347949028015,-7.80902099609375,-49.93872833251953,4.2418212890625,2
1596230380.910439,9,0,102713.100982875,0.9257082435917584,0.3779716901996428,1.231281230752946,0.03980071842670441,0.07001683861017227,0.1542195081710815,-0.1571502387523651,0.07482999563217163,-0.07788145542144775,2,-0.4390388509809728,-0.3904914058717918,-0.4551096077202006,-0.6690563733660827,0.1228999271988869,-0.9429162740707397,-0.3095226883888245,-8.208480834960938,-49.84236907958984,4.21575927734375,2
1596230380.940631,10,0,102713.131080875,0.9132417490005341,0.3935296442718654,1.234402811457176,0.1912168562412262,0.1886803954839706,-0.2453662008047104,-0.09889018535614014,-0.008013725280761719,0.07282674312591553,2,-0.4391420194976192,-0.3933543628664842,-0.4541841838695266,-0.6679394835220174,0.1265711039304733,-0.9439512491226196,-0.3048532605171204,-8.044914245605469,-50.14029693603516,4.484344482421875,2
1596230380.970548,11,0,102713.161178875,0.9025063554009886,0.4089994406786025,1.235639638642542,0.009140199981629848,0.1650291234254837,0.03669264167547226,-0.1104016005992889,-0.01080495119094849,0.002504408359527588,2,-0.4382246170384736,-0.3963147690670185,-0.4539310321397965,-0.6669634894163057,0.1308074593544006,-0.944358766078949,-0.3017875850200653,-7.799346923828125,-50.11560821533203,4.706512451171875,2
1596230381.000746,12,0,102713.191277875,0.8988740624223515,0.4178895934667103,1.235356601928429,0.2104147374629974,0.2760322093963623,-0.2933295965194702,-0.05447939038276672,0.05961167812347412,-0.05660539865493774,2,-0.4368179286595628,-0.3984489960037717,-0.4546789436550287,-0.6661046570733677,0.1335936337709427,-0.9442656636238098,-0.3008569777011871,-7.643486022949219,-49.90969848632812,4.5311279296875,2
1596230381.03073,13,0,102713.221375875,0.8652107957265904,0.4569393817924835,1.238580953161972,0.2542987465858459,0.1481835097074509,-0.2357179373502731,-0.0301443338394165,-0.03286910057067871,-0.06689435243606567,2,-0.4359711947498323,-0.4044625435674727,-0.4518653251384575,-0.6649486888990566,0.1438931375741959,-0.9453221559524536,-0.2926783263683319,-7.469413757324219,-49.78720092773438,4.70770263671875,2
1596230381.061004,14,0,102713.251474875,0.8311522581931511,0.4954129336690957,1.245333185374573,0.5461796522140503,0.4540497064590454,-0.2131455987691879,-0.04390689730644226,0.0427972674369812,0.02381116151809692,2,-0.4368704603158165,-0.4104774189711889,-0.4487597654898209,-0.6627722536888716,0.1520063132047653,-0.9475027322769165,-0.2813049852848053,-7.159248352050781,-49.92135620117188,5.34674072265625,2
1596230381.091138,15,0,102713.281572875,0.804507140526982,0.54590149471956,1.250681843200262,-0.06131540983915329,1.160227298736572,-0.2125952541828156,-0.2225147187709808,-0.05547332763671875,0.2632915377616882,2,-0.4331437647836267,-0.4218015738589272,-0.4508639394847629,-0.6566516787950072,0.1633756160736084,-0.949199378490448,-0.2689398229122162,-7.065910339355469,-49.71985626220703,5.6326904296875,2
1596230381.12394,16,0,102713.311670875,0.7806110704039686,0.598402025678663,1.239967579314486,-0.09194141626358032,0.9087318778038025,-0.6228020191192627,-0.2555413842201233,0.08276224136352539,-0.09762340784072876,2,-0.422178250945249,-0.4330976960923845,-0.4542834844613525,-0.6540782318981275,0.1829823404550552,-0.9457734823226929,-0.2683838307857513,-6.671035766601562,-49.84111785888672,5.368621826171875,2
1596230381.151147,17,0,102713.341769875,0.7218673185506516,0.6816029597915103,1.226652589833933,0.1463555097579956,0.7632211446762085,-0.8223271369934082,-0.09740531444549561,0.112274706363678,-0.07015305757522583,2,-0.4110096170472304,-0.4472900560253529,-0.4521646786525063,-0.6531077883974648,0.2125691771507263,-0.9413647055625916,-0.2620053887367249,-6.027778625488281,-49.91461181640625,5.295928955078125,2
1596230381.181445,18,0,102713.371867875,0.6585681710396126,0.7579442090111339,1.218515350041252,0.2967628836631775,0.5086137652397156,-0.6670559048652649,-0.09002822637557983,0.1410765647888184,-0.1728695631027222,2,-0.404982061704779,-0.459017435057666,-0.4467091154255862,-0.6524901138895318,0.2371903210878372,-0.9385881423950195,-0.2505850493907928,-4.768875122070312,-49.86627197265625,5.457916259765625,2
1596230381.211422,19,0,102713.401966875,0.5818849165228641,0.8521441873966064,1.21335706199134,0.7621521949768066,0.9549698829650879,-0.7601593732833862,0.2583190500736237,0.002709269523620605,-0.2887802124023438,2,-0.3999507541761234,-0.474199663422625,-0.4403308158523747,-0.6490628914291525,0.2633495330810547,-0.9367958307266235,-0.230348140001297,-4.234855651855469,-49.85037994384766,5.8450927734375,2
1596230381.241657,20,0,102713.432064875,0.5069416578986989,0.943345650253938,1.218800749569869,0.8419064283370972,0.2625396549701691,0.02292895317077637,0.2339448034763336,0.03938502073287964,-0.2357696294784546,2,-0.4001546641967469,-0.4885401665136964,-0.4349377192323176,-0.6418986434648738,0.2791018187999725,-0.9386865496635437,-0.2024095058441162,-3.253227233886719,-49.59351348876953,7.32952880859375,2
1596230381.273978,21,0,102713.462162875,0.4305687986527635,1.015993407944167,1.237919662434803,1.123071074485779,-0.1035488992929459,-0.04827059805393219,0.1887760162353516,0.1173337697982788,-0.0225335955619812,2,-0.4105850102472215,-0.4953328123270243,-0.4277272630270813,-0.634913060902792,0.2777497470378876,-0.9451062679290771,-0.1721307039260864,-3.053436279296875,-49.76030731201172,8.025970458984375,2
1596230381.301821,22,0,102713.492261875,0.3479608380961248,1.100564876198032,1.248698181277898,0.8832423090934753,0.5332204699516296,-0.03872818872332573,0.3360148668289185,-0.08441346883773804,-0.02309107780456543,2,-0.4173075672960471,-0.5041225721042903,-0.4207867348689119,-0.6282142737044618,0.2821990251541138,-0.9485733509063721,-0.1434296518564224,-2.72210693359375,-49.40767669677734,9.911224365234375,2
1596230381.331769,23,0,102713.522359875,0.2433652647400067,1.219309708217425,1.270291696672279,1.303914666175842,0.46604323387146,0.4941344261169434,0.1116841435432434,0.04765689373016357,0.2380633950233459,2,-0.4268657781920415,-0.5165557294951089,-0.4173079494006116,-0.6138482415491271,0.2779046893119812,-0.9551872611045837,-0.1019115746021271,-3.252128601074219,-48.79720306396484,12.07073974609375,2
1596230381.362053,24,0,102713.552458875,0.1867717359122291,1.274676190842442,1.295256461628773,0.6034424901008606,-0.117200642824173,0.5419619083404541,-0.2229652404785156,-0.009928703308105469,0.2290921211242676,2,-0.4384926343043731,-0.5177143560332288,-0.4172010824218335,-0.6046811710396209,0.2602250576019287,-0.9622784852981567,-0.07939211279153824,-3.784889221191406,-48.62136840820312,12.79248046875,2
1596230381.392069,25,0,102713.582556875,0.1005920644189955,1.361446486140348,1.307404828281187,0.8250983953475952,0.3641788959503174,-0.06953670829534531,-0.302968442440033,0.04797607660293579,0.09762883186340332,2,-0.4468731524792734,-0.5227334610632396,-0.4132606593252143,-0.596883233156696,0.2546714842319489,-0.9655125141143799,-0.05410822853446007,-4.500297546386719,-47.90413665771484,14.30349731445312,2
1596230381.423785,26,0,102713.612654875,0.03169805787320664,1.447194924319632,1.305427379509275,0.3884753286838531,0.8757998943328857,-0.3229075968265533,-0.2603123188018799,0.01621735095977783,0.1768004298210144,2,-0.4467682645646256,-0.5331333916147405,-0.4114991700442023,-0.5889271350248284,0.2602638900279999,-0.964995801448822,-0.03233380988240242,-4.695159912109375,-47.75428009033203,15.02517700195312,2
1596230381.452254,27,0,102713.642753875,-0.0174373661960019,1.523282742010889,1.289559642096668,0.3321075141429901,0.8473531007766724,-0.6671047806739807,0.1044023036956787,-0.04917424917221069,0.01217019557952881,2,-0.4397548002004354,-0.5477450566728298,-0.409713205543598,-0.5820018024463016,0.2772305309772491,-0.9607129096984863,-0.0131821371614933,-4.317481994628906,-47.60569763183594,15.74978637695312,2
1596230381.482507,28,0,102713.672851875,-0.0476808921661742,1.567227681530525,1.277261334412056,0.4272692203521729,0.2683540284633636,-0.132822573184967,0.2853086590766907,-0.007907748222351074,-0.1464308500289917,2,-0.4356451913474225,-0.5565042648367796,-0.4070735393151359,-0.5786253814433333,0.2893357276916504,-0.9572270512580872,-0.001032540923915803,-3.927871704101562,-47.65357208251953,15.83627319335938,2
1596230381.512367,29,0,102713.702950875,-0.1039996718636594,1.621634732974919,1.28017654171543,0.5490932464599609,-0.3238565921783447,0.3201149106025696,0.1608415246009827,0.04291534423828125,-0.1651053428649902,2,-0.441121322407684,-0.5591892416243014,-0.4036250134938432,-0.5742875105161933,0.2861756086349487,-0.958066463470459,0.01456125825643539,-4.163368225097656,-47.70784759521484,16.498779296875,2
1596230381.542644,30,0,102713.733048875,-0.1743013389371821,1.677429427627844,1.288748817033937,0.7542474269866943,-0.3172020316123962,0.2364096641540527,-0.03822922706604004,0.03590929508209229,0.03639495372772217,2,-0.4517521126016543,-0.5574325943500535,-0.3985817958925207,-0.5712453797303298,0.2767412662506104,-0.9604876041412354,0.02962213754653931,-4.369491577148438,-47.43975067138672,17.22723388671875,2
1596230381.573406,31,0,102713.763146875,-0.2650987116114502,1.764074364962226,1.288213460255837,0.7577180862426758,0.3089808821678162,0.072786845266819,-0.1458692848682404,0.09366542100906372,0.3194143772125244,2,-0.4598974987979574,-0.5614920523201647,-0.3923599028757054,-0.5650438530140959,0.2736445963382721,-0.9603384733200073,0.05355807021260262,-4.474395751953125,-46.91732788085938,18.2841796875,2
1596230381.602882,32,0,102713.793245875,-0.3133804491622182,1.826169722501623,1.287201531212189,0.1773511171340942,0.7609679698944092,-0.04336740076541901,-0.03375738859176636,-0.1015368700027466,0.1416423320770264,2,-0.461129188903015,-0.568067412894353,-0.3927715214903241,-0.5571262858305565,0.2707337439060211,-0.9600557684898376,0.07068143039941788,-4.737815856933594,-46.72979736328125,19.01788330078125,2
1596230381.632882,33,0,102713.823343875,-0.3319829432051525,1.864380925101024,1.283606897698385,0.2051853388547897,0.3072626888751984,0.0139847956597805,-0.03358715772628784,-0.02414816617965698,-0.2200350761413574,2,-0.4582005368150215,-0.5753586588210984,-0.3951665399782904,-0.5503254113672591,0.2711379528045654,-0.9590438008308411,0.08197063952684402,-5.301666259765625,-46.42217254638672,19.4840087890625,2
1596230381.663027,34,0,102713.853442875,-0.3543833316797573,1.894865418732295,1.282529835643701,0.2200938314199448,0.4629168808460236,-0.03315666317939758,-0.02450275421142578,0.07911896705627441,-0.0181809663772583,2,-0.4584313679861082,-0.5788811154884483,-0.3956368343867825,-0.5460847436703504,0.2694916129112244,-0.9587381482124329,0.09052532911300659,-5.376724243164062,-46.32273101806641,19.76919555664062,2
1596230381.692974,35,0,102713.883540875,-0.3702294593531884,1.924879290588257,1.277373869016923,0.1102586165070534,0.3157984018325806,-0.1072205826640129,0.1000044345855713,-0.07277059555053711,-0.02085566520690918,2,-0.4561502381868612,-0.5848669813793118,-0.3963715482976561,-0.5410611490629536,0.2712876498699188,-0.9572595953941345,0.1002848520874977,-5.485427856445312,-46.18502044677734,19.9915771484375,2
1596230381.723953,36,0,102713.913638875,-0.3862294831691145,1.943312945700757,1.274416119810321,0.2042508125305176,-0.09458205103874207,0.04524748027324677,0.1087133884429932,0.03777772188186646,0.006740450859069824,2,-0.4566638194240548,-0.5870326692689722,-0.3952027728877204,-0.5391340978313934,0.2720290422439575,-0.9563999772071838,0.1062983945012093,-5.543792724609375,-46.06719207763672,20.21115112304688,2
1596230381.753244,37,0,102713.943737875,-0.4038599784584509,1.952476321263305,1.275722947617945,0.07534107565879822,-0.2084201276302338,0.09806475043296814,-0.02537259459495544,0.08116298913955688,0.109853982925415,2,-0.460250677593683,-0.5850895293729008,-0.3930165817413875,-0.5397939166525219,0.2698832452297211,-0.9567807912826538,0.1083208844065666,-5.473373413085938,-46.181884765625,20.56341552734375,2
1596230381.78348,38,0,102713.973835875,-0.4127932561725099,1.960058828176159,1.276544246243216,0.0463513471186161,0.1588510572910309,0.03765993565320969,-0.05487734079360962,-0.05244553089141846,0.1414411067962646,2,-0.4615134673535067,-0.5848403692846208,-0.3926496784741952,-0.5392524747078132,0.268326997756958,-0.9570193290710449,0.1100658774375916,-5.642608642578125,-46.053955078125,20.617919921875,2
1596230381.813743,39,0,102714.003933875,-0.4130181178764551,1.963251690312659,1.276211005925108,-0.008189293555915356,-0.0220880638808012,-0.04627686366438866,0.06737443804740906,0.01277929544448853,-0.0146404504776001,2,-0.4608960397486265,-0.5857446220608673,-0.3932053729340026,-0.5383933857926813,0.2682684659957886,-0.9569226503372192,0.1110438406467438,-5.641105651855469,-46.11302185058594,20.60284423828125,2
1596230381.843644,40,0,102714.034032875,-0.4114282245971724,1.96155497353624,1.277585945959746,-0.03006516769528389,-0.1603418737649918,0.1677703559398651,0.06415963172912598,0.0358729362487793,-0.01478493213653564,2,-0.4609951590175583,-0.5852582055432418,-0.393737964236163,-0.5384483599681761,0.267240047454834,-0.9573209285736084,0.1100874096155167,-5.845222473144531,-46.27291107177734,20.5802001953125,2
1596230381.873579,41,0,102714.064130875,-0.4162714037141177,1.963125067979204,1.284073322402575,-0.09880107641220093,0.08089356124401093,0.1837147176265717,0.08224242925643921,-0.07233905792236328,0.166108250617981,2,-0.4631840877227188,-0.5826881897660318,-0.3951340170196466,-0.5383344936853743,0.2613227367401123,-0.9591757655143738,0.1081300526857376,-5.74957275390625,-45.93457794189453,20.80123901367188,2
1596230381.903816,42,0,102714.094229875,-0.3854795632475332,1.934687584114828,1.293086519634065,-0.7305263876914978,-0.1508059501647949,0.2249727100133896,-0.001891493797302246,0.002272546291351318,0.2395510673522949,2,-0.4614278894025345,-0.5795443947534444,-0.4000831247084218,-0.5395793924057355,0.2562013864517212,-0.961685836315155,0.09757480770349503,-6.174468994140625,-46.13968658447266,20.0572509765625,2
1596230381.933747,43,0,102714.124327875,-0.3061997197177233,1.860006272046251,1.309588007312782,-0.7872169613838196,0.5176942944526672,0.3604598939418793,-0.06728243827819824,0.01173001527786255,0.1915044784545898,2,-0.456783224721105,-0.572865186244028,-0.410160171210707,-0.5430865722473938,0.2475222051143646,-0.9660786390304565,0.07365087419748306,-6.363128662109375,-46.42864227294922,19.41049194335938,2
1596230381.96399,44,0,102714.154425875,-0.2266092961743902,1.808844569826351,1.325283317620281,-0.9690331816673279,1.168028593063354,0.208205983042717,0.02158761024475098,-0.05787551403045654,0.3899949789047241,2,-0.447908366204546,-0.5727432357318695,-0.4253921035686826,-0.5388734620918438,0.236198902130127,-0.9700127840042114,0.05731343850493431,-7.431800842285156,-46.61379241943359,18.08013916015625,2
1596230381.993887,45,0,102714.184524875,-0.0402700319984667,1.666292272531348,1.336614869466906,-2.032575607299805,1.465628623962402,0.1690685153007507,0.04632274806499481,-0.08102637529373169,0.5616331100463867,2,-0.4283618239906269,-0.5723365170451393,-0.4478579353495972,-0.5369919539617312,0.2309897243976593,-0.9727045893669128,0.02212588116526604,-7.948471069335938,-47.23404693603516,16.73037719726562,2
1596230382.024161,46,0,102714.214622875,0.2516513759017039,1.431774537473607,1.343748378072305,-2.161562204360962,2.008079767227173,0.3069901764392853,0.02107538282871246,-0.1225404739379883,0.1045694947242737,2,-0.4014759744990968,-0.5685247285738424,-0.4793862394167178,-0.534589012522328,0.2229300290346146,-0.9743351340293884,-0.03119334951043129,-9.286277770996094,-48.43611145019531,12.873779296875,2
1596230382.054144,47,0,102714.244721875,0.5234090216813675,1.237547685930281,1.332343537391493,-2.29561710357666,2.660310029983521,-0.1136648952960968,-0.1802525371313095,-0.203255295753479,0.2649907469749451,2,-0.3682753575417624,-0.5707374211368376,-0.5119422923035354,-0.5258773534688381,0.2232043147087097,-0.9717046022415161,-0.07726411521434784,-9.900726318359375,-48.77827453613281,10.571533203125,2
1596230382.084361,48,0,102714.274819875,0.845494387057359,1.06657081632853,1.268263413731006,-5.063510417938232,8.411210060119629,-1.694719552993774,-0.4043031930923462,-0.623256504535675,0.4417992234230042,2,-0.2972738856033084,-0.5828008212394565,-0.5592922038683301,-0.5090810218917938,0.2608597278594971,-0.9545848965644836,-0.1439428776502609,-10.27349090576172,-49.33612823486328,4.22711181640625,2
1596230382.114356,49,0,102714.304917875,1.213063020877417,1.050823050339056,1.127347296683304,-7.377232551574707,10.97767543792725,-1.398637533187866,-1.114570617675781,-0.3070068955421448,0.970169723033905,2,-0.1381056126962056,-0.6118306790715183,-0.6370315624395946,-0.4480856984367905,0.372349888086319,-0.9032772183418274,-0.2131801247596741,-8.829666137695312,-49.74552154541016,-1.751922607421875,2
1596230382.144647,50,0,102714.335016875,1.54420822318082,1.095369294749838,0.9699522075465934,-6.534842967987061,12.42833709716797,-2.899821996688843,-0.8079304695129395,0.3978551030158997,1.015643119812012,2,0.03623719312888851,-0.6077038112618864,-0.7008367190159944,-0.3717671370940626,0.5026413202285767,-0.8248587250709534,-0.2587658762931824,-1.514945983886719,-47.11372375488281,-16.30307006835938,2
1596230382.174619,51,0,102714.365114875,1.737842378742959,1.337205134155546,0.7994368991587338,-5.537510871887207,12.72517776489258,-4.328755378723145,-0.3006608486175537,0.6144342422485352,1.451322078704834,2,0.2388915168944916,-0.6018719260157053,-0.7077324517144328,-0.2824816224814223,0.678178071975708,-0.7169636487960815,-0.1613620519638062,6.032455444335938,-44.52969360351562,-21.01022338867188,2
1596230382.207255,52,0,102714.3952125,1.937651425565324,1.539770129261569,0.6540428447172472,-6.028214931488037,9.667107582092285,-3.943903684616089,0.1299127340316772,0.9681224822998047,1.538593649864197,2,0.4126956839808807,-0.5633583026265934,-0.6870317422203064,-0.2007413505096352,0.7932486534118652,-0.6083998680114746,-0.02461939118802547,23.67145538330078,-36.57936096191406,-21.27029418945312,2
1596230382.234714,53,0,102714.4253115,2.166626016310989,1.676160712449251,0.5499163193691481,-6.133875370025635,8.360052108764648,-3.660138607025146,1.488839030265808,1.294012546539307,1.850000381469727,2,0.5470331545238056,-0.4955671766936527,-0.6633125066645995,-0.1232246381786617,0.8478400111198425,-0.522615909576416,0.08966419845819473,36.288330078125,-26.99033355712891,-17.18911743164062,2
1596230382.264995,54,0,102714.4554095,2.416761530394802,1.780450856879448,0.4793128584396453,-7.951442241668701,6.153189659118652,-2.568279266357422,1.898852109909058,0.6498359441757202,0.169137716293335,2,0.6530044552866284,-0.4073324722455406,-0.63695450247859,-0.04420714777755916,0.867882251739502,-0.461169570684433,0.1846691220998764,41.02938842773438,-22.12543487548828,-14.14987182617188,2
1596230382.29487,55,0,102714.4855075,2.663162273299391,1.835185036646543,0.5165077266064937,-5.558474063873291,5.210588932037354,1.59587562084198,0.07868307828903198,0.1164292097091675,-1.697595357894897,2,0.7091655202106689,-0.3327149346500017,-0.6189036392471049,0.05782111657742198,0.8393343687057495,-0.4938464462757111,0.2272299230098724,44.64990234375,-15.94949722290039,-8.91644287109375,2
1596230382.325324,56,0,102714.5156065,2.742913935619675,1.926190225643983,0.6456535280924733,-2.01245379447937,5.918477535247803,4.625440120697021,-0.9447795152664185,0.4517393112182617,0.4917798042297363,2,0.7272662727815803,-0.3317266717384804,-0.5823380080342453,0.1480657455417907,0.7487948536872864,-0.6017205715179443,0.2779176235198975,44.70590209960938,-17.58065414428711,-6.120330810546875,2
1596230382.357623,57,0,102714.5457045,2.729465145104565,2.172357864149577,0.7611827790921573,-0.3570439219474792,7.482525825500488,1.523513317108154,0.1913700699806213,0.8189956545829773,0.8848602771759033,2,0.768748322061597,-0.3374889246817334,-0.4906379083898501,0.2332418513237325,0.5969210267066956,-0.6897782683372498,0.4097455143928528,42.12310791015625,-24.02120971679688,4.090301513671875,2
1596230382.385381,58,0,102714.5758025,2.773152871494314,2.204898964822926,0.7148585010209849,-0.7215145230293274,-3.17712926864624,-4.244053840637207,1.512975811958313,0.5884760618209839,-0.01995909214019775,2,0.7928462511325378,-0.3083855077864187,-0.4729140639014003,0.2294460478438121,0.6083806157112122,-0.6555105447769165,0.4474135935306549,41.73947143554688,-23.87062835693359,8.285400390625,2
1596230382.415272,59,0,102714.6059015,2.866760230313279,2.041441974669234,0.6466212123008652,-0.4853711724281311,-3.200408458709717,-1.159716367721558,1.065283060073853,0.07660722732543945,0.1267119646072388,2,0.7779464707900046,-0.2752429800581697,-0.5280954722951806,0.2003891185653379,0.7113485932350159,-0.6024931669235229,0.3619188070297241,45.04864501953125,-18.22072219848633,3.49847412109375,2
1596230382.44561,60,0,102714.6359995,2.829696816545638,1.958153346732828,0.6880688397998304,1.156820297241211,-2.913913726806641,3.614217042922974,-0.01271408796310425,-0.4781492948532104,-0.1281236410140991,2,0.7426446136768141,-0.3072085657725288,-0.5622110951746915,0.1949886007662865,0.7152417302131653,-0.6350466012954712,0.2917962372303009,44.96803283691406,-18.29123306274414,0.36529541015625,2
1596230382.47584,61,0,102714.6660985,2.747564061545968,2.009407981770949,0.7626521754640182,0.1333169639110565,2.637690782546997,1.633249282836914,-0.2711148858070374,0.3736777305603027,0.5279866456985474,2,0.7291559715685161,-0.3490785428157233,-0.5496660875740047,0.2105778121524755,0.6545682549476624,-0.6908414363861084,0.3070485293865204,42.29672241210938,-23.56591033935547,-1.8780517578125,2
1596230382.50717,62,0,102714.6961965,2.773166821853035,2.099917670065604,0.7653811490571181,-0.9569844603538513,3.576447486877441,-1.567131161689758,-0.3551936745643616,0.2265815734863281,-0.007449984550476074,2,0.7570071707011494,-0.3300627795153859,-0.5131317648438224,0.2338686627011443,0.6225061416625977,-0.692811906337738,0.3640025854110718,41.70970153808594,-24.35618591308594,0.31097412109375,2
1596230382.535668,63,0,102714.7262945,2.83406852877277,2.135410998380072,0.7428900235282635,-0.4307505190372467,1.393495559692383,-0.593449592590332,-0.05708330869674683,-0.1547343730926514,-0.265316367149353,2,0.779916721567299,-0.297962072237493,-0.4926578612811169,0.2454316974963689,0.6222055554389954,-0.6764192581176758,0.3941029906272888,42.73611450195312,-22.69512939453125,4.940032958984375,2
1596230382.56585,64,0,102714.7563935,2.819265993894625,2.163343155967973,0.7582443703912942,0.2714741826057434,-0.1303050518035889,1.342143654823303,0.2852984666824341,0.0464053750038147,-0.1998049020767212,2,0.7815293721669596,-0.3032340639723733,-0.4832585942556663,0.2524325505695016,0.6022692918777466,-0.687647819519043,0.4054781198501587,42.72508239746094,-22.35427856445312,6.097320556640625,2
1596230382.595975,65,0,102714.7864915,2.784382335090333,2.159054625801409,0.7718086226165702,0.5089238882064819,-1.545282483100891,0.1309712082147598,0.3460131883621216,0.2294039130210876,-0.1900073289871216,2,0.7723505835847643,-0.319865336692738,-0.4890611027440588,0.2489576290950864,0.5961874127388,-0.6974325180053711,0.3976785242557526,42.08992004394531,-24.07511901855469,5.638031005859375,2
1596230382.626456,66,0,102714.8165895,2.769110876790944,2.121004869760875,0.7665534758160859,0.2699788510799408,-1.522157907485962,0.3131380379199982,-0.03657400608062744,-0.1808410882949829,-0.114679217338562,2,0.7614723379790594,-0.3293496081710929,-0.5055847149553698,0.2367968861057813,0.613999605178833,-0.6936568021774292,0.3766225576400757,41.94911193847656,-24.20342254638672,4.656646728515625,2
1596230382.657331,67,0,102714.8466885,2.751256661328485,2.110021147505574,0.7810462412088955,-0.05354198068380356,0.4734843969345093,0.7167903184890747,-0.3616015315055847,-0.1626739501953125,0.09586083889007568,2,0.7527271693043526,-0.3401904730016693,-0.5116456020122997,0.2364129507942644,0.6094081997871399,-0.7040228247642517,0.3646554946899414,41.66802978515625,-24.56786346435547,2.811920166015625,2
1596230382.686357,68,0,102714.8767865,2.745976362858833,2.147817808286756,0.7959638370138535,-0.1697176396846771,0.7566962838172913,0.1283804178237915,-0.685128390789032,0.0708237886428833,-0.02271449565887451,2,0.7582579624939982,-0.3403972810066327,-0.4978196346715559,0.2476896729457749,0.5863256454467773,-0.7145382165908813,0.3816508948802948,40.99612426757812,-25.69680786132812,3.97076416015625,2
1596230382.716336,69,0,102714.9068845,2.7521467386912,2.14048371639966,0.7839507042526147,0.2912274897098541,-0.2320565283298492,-0.8237259387969971,-0.0383116602897644,-0.1812466382980347,-0.1945960521697998,2,0.7599809353404682,-0.3367499079274823,-0.4999812671547827,0.2429963858889399,0.5962944626808167,-0.7060825228691101,0.3819430470466614,41.23851013183594,-25.41419982910156,3.99163818359375,2
1596230382.74656,70,0,102714.9369835,2.762271305550282,2.142311583306332,0.7708691496195276,-0.3107481300830841,0.4777947664260864,0.1099207922816277,0.3280025124549866,-0.03920751810073853,0.02956938743591309,2,0.764814948251304,-0.3302360356213346,-0.4982130743003961,0.2403869897770153,0.6033127307891846,-0.6967589259147644,0.3879954814910889,41.6173095703125,-24.49562072753906,4.181060791015625,2
1596230382.776482,71,0,102714.9670815,2.762328445371854,2.145750280383458,0.7855441005885543,0.03509551659226418,-0.04270637035369873,0.3078321814537048,-0.05463975667953491,0.135585606098175,-0.1783703565597534,2,0.7626669740875698,-0.3325237205285996,-0.4967093115346614,0.2470768520554134,0.5933297276496887,-0.7072099447250366,0.3844658732414246,41.54196166992188,-25.14266204833984,4.16876220703125,2
1596230382.806874,72,0,102714.9971795,2.766961348752905,2.147649198551596,0.7815434565289506,-0.4635722637176514,0.2703400552272797,-0.5101305246353149,-0.007042169570922852,0.05229920148849487,0.1517976522445679,2,0.7647296710693604,-0.3297792923285937,-0.4954656007338376,0.2468762944138261,0.5949651002883911,-0.7043758630752563,0.3871316909790039,41.74861145019531,-24.64972686767578,4.44451904296875,2
1596230382.836773,73,0,102715.0272785,2.797536349207834,2.132895427040641,0.7817113794789561,-0.1987861692905426,0.2601393163204193,-0.06761722266674042,0.2752230763435364,0.03421646356582642,-0.2486990690231323,2,0.7659999770408946,-0.319950753794242,-0.4972945883443408,0.2521380459127373,0.6005117893218994,-0.7044950127601624,0.3782489001750946,41.63301086425781,-24.42546081542969,4.520538330078125,2
1596230382.869467,74,0,102715.0573765,2.77560777773433,2.158362659532717,0.7823277219446376,0.4681694507598877,0.0534617081284523,0.4159208238124847,-0.03988939523696899,0.03992396593093872,0.3140808343887329,2,0.7686248661312176,-0.3252758376787391,-0.4902713189923416,0.2510883465538685,0.5903235077857971,-0.7049323320388794,0.3931771218776703,41.57696533203125,-24.54471588134766,4.932037353515625,2
1596230382.897252,75,0,102715.0874745,2.776570416057702,2.153255686191957,0.7849214259842691,-0.2132895439863205,-0.006651219911873341,-0.2351543605327606,-0.2447741031646729,-0.1469495892524719,0.1516126394271851,2,0.7669953387383518,-0.326026467507547,-0.4920724517983107,0.2515740909104756,0.5907949209213257,-0.706769585609436,0.3891502022743225,41.4228515625,-24.63997650146484,4.9296875,2
1596230382.929231,76,0,102715.1175735,2.779723643035939,2.149201460539714,0.7786406385138295,0.1442876756191254,-0.06615021824836731,-0.2268436700105667,-0.1252159476280212,0.1110296249389648,-0.1367692947387695,2,0.7677939690130231,-0.3241573199555022,-0.4933309970138645,0.2490763726875925,0.5960732698440552,-0.7023124098777771,0.3891710937023163,41.86238098144531,-24.36484527587891,4.665008544921875,2
1596230382.957179,77,0,102715.1476715,2.784404132824501,2.156167439635033,0.768875716416169,0.02202209271490574,0.6899210214614868,-0.3773659467697144,0.08088773488998413,-0.0006489753723144531,0.0689852237701416,2,0.772239176780136,-0.3196696116514102,-0.4902166138808081,0.2472763400054644,0.5990355014801025,-0.6953276395797729,0.3970840275287628,41.90280151367188,-24.03983306884766,4.842498779296875,2
1596230382.989702,78,0,102715.1777695,2.792129753234688,2.164176808667239,0.7643855539352468,-0.14544777572155,0.1410743296146393,-0.02825535647571087,0.1953591704368591,-0.06027776002883911,0.04894161224365234,2,0.7763213578139667,-0.3148500588189131,-0.4862249450363351,0.2485553877506857,0.5984182357788086,-0.6920936107635498,0.4036108255386353,41.97419738769531,-23.54899597167969,5.743560791015625,2
1596230383.017223,79,0,102715.2078685,2.792096959839288,2.15543766268671,0.7698671494799497,0.08928900957107544,-0.7482839226722717,0.2506313621997833,0.1697238087654114,0.02019929885864258,-0.3667397499084473,2,0.773085294133498,-0.3169735083409083,-0.4895277641431567,0.2494583682706912,0.5987500548362732,-0.6960398554801941,0.3962661623954773,42.08526611328125,-23.55983734130859,5.787109375,2
1596230383.049374,80,0,102715.2379665,2.778868030457833,2.138158475465541,0.7707464779405386,0.2038152664899826,-0.7721505165100098,0.1203284114599228,-0.1620719432830811,-0.1107072234153748,-0.161386251449585,2,0.7665217800726359,-0.3243618420044559,-0.4977958108925095,0.2437889088686091,0.6049910187721252,-0.6966709494590759,0.3855324983596802,41.92526245117188,-23.99375152587891,4.570892333984375,2
1596230383.077546,81,0,102715.2680645,2.776115566069003,2.126849941111979,0.7715714098827502,-0.05797257646918297,-0.02677511237561703,0.01422883383929729,-0.1413595080375671,-0.08761614561080933,0.04477918148040771,2,0.7630787674847862,-0.3269437411065619,-0.5024409541892663,0.2416019654895609,0.6088235378265381,-0.6972625255584717,0.3783628344535828,41.93611145019531,-23.76370239257812,4.378570556640625,2
1596230383.10968,82,0,102715.2981635,2.780013594427882,2.123825943040203,0.7733977036911853,-0.1002106219530106,-0.30152428150177,-0.02467472851276398,-0.09853988885879517,0.01357835531234741,-0.0370858907699585,2,0.7625850807408532,-0.3261736666549485,-0.5030912486154884,0.242845184327415,0.608880341053009,-0.6985704898834229,0.3758505284786224,41.80421447753906,-24.0242919921875,3.826263427734375,2
1596230383.138018,83,0,102715.3282615,2.7795626622573,2.102500562220353,0.7689996832441318,0.2264399230480194,-1.045278072357178,-0.2448046505451202,-0.09279835224151611,0.008123576641082764,-0.04676163196563721,2,0.7579917180403107,-0.3280493352826889,-0.5113331724178749,0.2374245847158962,0.6193986535072327,-0.6954167485237122,0.3643356263637543,41.80668640136719,-23.93108367919922,3.562591552734375,2
1596230383.169205,84,0,102715.3583595,2.78076223389406,2.059900587595138,0.7574347646984473,0.1459502875804901,-1.745000123977661,-0.4378054738044739,-0.2196165919303894,-0.1857568621635437,-0.1328251361846924,2,0.7494407867668205,-0.3301967760634364,-0.5274882635505178,0.2259751293480521,0.6414099335670471,-0.6870598196983337,0.3413828015327454,42.28497314453125,-23.74341583251953,1.9892578125,2
1596230383.197956,85,0,102715.388458625,2.776643588150068,2.006721465020199,0.7390730044488165,0.4840312898159027,-1.85365617275238,-0.538876473903656,-0.3015471696853638,-0.2517803907394409,-0.1079310178756714,2,0.7380740912694875,-0.3335977168747601,-0.5481384190076578,0.2085750051113582,0.6699732542037964,-0.6736030578613281,0.3120816051959991,42.70907592773438,-22.74102020263672,-0.792236328125,2
1596230383.229525,86,0,102715.418556625,2.766092472264008,1.968449627943943,0.716401714333363,0.6391831636428833,-1.130768179893494,-0.7080308794975281,-0.2989869117736816,-0.1509576439857483,0.07845664024353027,2,0.7300549595047613,-0.3362272235575159,-0.5637664131960711,0.1901007328207336,0.6953268647193909,-0.6566752195358276,0.292057991027832,42.91641235351562,-22.3948974609375,-2.007232666015625,2
1596230383.258184,87,0,102715.448654625,2.751016107506698,1.942611651352323,0.6803091916691724,0.882851243019104,-1.380133986473083,-1.182297229766846,-0.01419591903686523,-0.04680430889129639,0.007255792617797852,2,0.7269946860584348,-0.3356967913200185,-0.5752352441227596,0.1670054583682282,0.7242595553398132,-0.6290333867073059,0.2824272215366364,43.18670654296875,-21.05312347412109,-3.285919189453125,2
1596230383.290216,88,0,102715.478753625,2.7284840933134,1.907631431568493,0.6399529069104719,1.41795015335083,-1.835295081138611,-0.841008722782135,0.4990770816802979,0.1766387224197388,-0.1119037866592407,2,0.7204490131059179,-0.3369047581290454,-0.5901495723396901,0.1384617551314455,0.757048487663269,-0.5971576571464539,0.2651031911373138,43.72592163085938,-20.17943572998047,-4.442047119140625,2
1596230383.318355,89,0,102715.508851625,2.657617696923769,1.883495148257589,0.5936301483078019,3.181574821472168,-2.702117443084717,-1.021183490753174,0.2876699566841125,0.2784616947174072,-0.264867901802063,2,0.7094638148547575,-0.3523630793099641,-0.6029255241941947,0.09477326180742701,0.7887184619903564,-0.5593737959861755,0.2549972832202911,43.93489074707031,-19.01317977905273,-6.69952392578125,2
1596230383.350099,90,0,102715.538949625,2.546336292503904,1.829988469441968,0.5353094405537371,3.623736143112183,-4.732408046722412,-0.611727237701416,0.5793572068214417,0.3776180744171143,-0.03099393844604492,2,0.6834408816417367,-0.3783274201945402,-0.6236957485154906,0.02793570811850593,0.8313806653022766,-0.5101072192192078,0.2204461544752121,44.00425720214844,-18.57167816162109,-8.159271240234375,2
1596230383.378525,91,0,102715.569048625,2.427062687401971,1.730526724466491,0.5127578250854997,3.616111993789673,-5.616986751556396,0.3865117430686951,0.7911460399627686,0.4359523057937622,0.1982402801513672,2,0.6323824217768778,-0.411571426210184,-0.6551479866740979,-0.03850369392166128,0.860302209854126,-0.4905822575092316,0.1385971307754517,41.66703796386719,-19.45666885375977,-13.92291259765625,2
1596230383.410383,92,0,102715.599146625,2.28210056915256,1.616900505378017,0.5035504861698986,4.921772003173828,-6.749311447143555,-0.2654065489768982,0.3553453683853149,0.3277469873428345,-0.1950969696044922,2,0.5650454328618808,-0.4482267818266904,-0.6830950842893357,-0.114879848656999,0.8749439716339111,-0.4825383424758911,0.04036717861890793,39.65682983398438,-20.80847930908203,-17.05621337890625,2
1596230383.438707,93,0,102715.629244625,2.088296305077029,1.492711670270131,0.4987143138811536,6.276832103729248,-7.444938659667969,0.08995839953422546,0.2469713687896729,0.519767165184021,-0.0952867865562439,2,0.4777439387759906,-0.487348601238872,-0.6992760567601971,-0.2127557806908525,0.875522255897522,-0.4782968461513519,-0.06850413978099823,34.13426208496094,-24.69230651855469,-22.91748046875,2
1596230383.469539,94,0,102715.659343625,1.873987297034338,1.372476811844797,0.5678899246594475,6.413156986236572,-7.701402187347412,3.149628877639771,0.7933058142662048,1.39890718460083,0.3678619861602783,2,0.3617739877870386,-0.5348561267009587,-0.7035419239042119,-0.2967778914450337,0.8265132904052734,-0.5378543734550476,-0.1660970151424408,30.10200500488281,-28.11198425292969,-24.67544555664062,2
1596230383.498934,95,0,102715.689441625,1.675567391080388,1.247015500121254,0.7358837406168307,6.915075778961182,-8.961895942687988,4.032848834991455,0.7409713268280029,1.329903125762939,1.008716821670532,2,0.2094898578787795,-0.5815500004182625,-0.7034722015464703,-0.3507712498317469,0.7027226090431213,-0.6712424755096436,-0.2358271926641464,18.25627136230469,-37.57054901123047,-24.4000244140625,2
1596230383.529884,96,0,102715.719539625,1.418335104307924,1.123515954607763,0.8987441639271742,7.082980632781982,-11.72199058532715,1.729538679122925,0.4175973534584045,-0.403774619102478,1.128487110137939,2,0.03343627653510159,-0.6035242774183756,-0.6720156311560201,-0.4278264129544928,0.5613466501235962,-0.7825456261634827,-0.2692809104919434,10.98550415039062,-42.39070129394531,-21.87408447265625,2
1596230383.559414,97,0,102715.749638625,1.274430916810994,0.8973450267791909,1.032997207756879,2.479488611221313,-9.67278003692627,3.664077997207642,0.1007600724697113,-0.1599546074867249,1.941197395324707,2,-0.1332287372007971,-0.5678988110684754,-0.6383182958284046,-0.5022856010382998,0.4004101157188416,-0.8588381409645081,-0.3194820880889893,-1.097160339355469,-47.84996032714844,-13.83261108398438,2
1596230383.590421,98,0,102715.779736625,1.366374543725275,0.5630247176555279,1.139075418764976,1.795995831489563,-7.283082485198975,1.84115743637085,-0.9396814107894897,-0.1625463366508484,-0.06523007154464722,2,-0.2540655603485172,-0.5084559068815232,-0.6268807088690735,-0.5328636606931141,0.2233377546072006,-0.9082469940185547,-0.353846549987793,-7.048316955566406,-48.40891265869141,-11.2637939453125,2
1596230383.619289,99,0,102715.809834625,1.236722677199799,0.5510556583946462,1.186503867491979,2.223330497741699,-1.851597785949707,-2.238393306732178,-0.9224931001663208,0.3340808749198914,0.01549279689788818,2,-0.3075946372783172,-0.4956632008644014,-0.5864480139836102,-0.5619449799188152,0.196294367313385,-0.9270639419555664,-0.3194070756435394,-12.48578643798828,-48.61009979248047,-5.733245849609375,2
1596230383.650114,100,0,102715.839933625,1.04266024217484,0.6897772470730547,1.206013835550072,1.560290217399597,-0.9250508546829224,-0.4354900419712067,-0.2600189745426178,0.374167799949646,0.2351992130279541,2,-0.324139585729826,-0.507285805837549,-0.552310721880399,-0.5766691510058376,0.2270206063985825,-0.9342013597488403,-0.2751892805099487,-9.943977355957031,-49.61341857910156,-1.455169677734375,2
1596230383.679566,101,0,102715.870031625,0.9809556779146963,0.745532168478667,1.237313666107923,1.128801345825195,0.3841455280780792,0.174810454249382,0.2488162070512772,0.02320349216461182,0.1660592555999756,2,-0.3366817029030963,-0.5161338309005261,-0.5436990004692657,-0.5697743260398294,0.2220526039600372,-0.944908082485199,-0.2405025959014893,-9.780097961425781,-49.74877166748047,-0.012298583984375,2
1596230383.728586,102,0,102715.900129625,0.8739156629552836,0.825613494951621,1.258580152726673,1.379411220550537,-1.988695502281189,-0.4329924881458282,0.602131724357605,-0.1641253232955933,0.0007810592651367188,2,-0.3512219500819118,-0.5220122961705899,-0.5273219844114085,-0.5710321476787668,0.2257574945688248,-0.9516551494598389,-0.2082926034927368,-9.608108520507812,-49.80115509033203,2.5560302734375,2
1596230383.739686,103,0,102715.930227625,0.7888376516317243,0.8333940726899466,1.295505945697787,1.337973952293396,-2.534510850906372,1.113953471183777,-0.085023432970047,-0.09405380487442017,0.05910581350326538,2,-0.3853725963008548,-0.5100042993467476,-0.505681668707306,-0.5793700161333233,0.2012106776237488,-0.9623463153839111,-0.1827671527862549,-9.454795837402344,-49.69520568847656,4.173370361328125,2
1596230383.786632,104,0,102715.960326625,0.7901570102657707,0.7849252572803085,1.338751898297682,1.01964008808136,-0.06940575689077377,0.7004426717758179,-1.135389566421509,-0.3150789141654968,0.5389820337295532,2,-0.4137171652295606,-0.4974877048937636,-0.497915954636128,-0.5774284776233183,0.1625343859195709,-0.9731982946395874,-0.1626881808042526,-10.75454711914062,-49.1654052734375,6.9461669921875,2
1596230383.800042,105,0,102715.990424625,0.6755114180501264,0.935037931899026,1.361353579139396,0.825120210647583,2.333914518356323,-0.8126230239868164,-0.7191616892814636,-0.01732301712036133,0.4590405821800232,2,-0.4139869754877904,-0.5166102607277249,-0.4974814393153565,-0.560571857292496,0.1672926694154739,-0.9781469106674194,-0.123457245528698,-11.24921417236328,-49.09513092041016,7.81939697265625,2
1596230383.848895,106,0,102716.020522625,0.5447517667181245,1.144835459406383,1.324980238251492,0.04793840646743774,2.931721925735474,-1.975536704063416,0.2903634905815125,0.1199721693992615,0.2174532413482666,2,-0.3830792715569023,-0.5504316632601224,-0.4991871120627257,-0.5487144580426686,0.2216031551361084,-0.9699390530586243,-0.1005505099892616,-10.01609039306641,-49.1956787109375,8.23431396484375,2
1596230383.860063,107,0,102716.050621625,0.4298314821942338,1.308870710422367,1.293917206009075,1.10747504234314,-0.2564588785171509,-0.175698846578598,0.6893889904022217,-0.3380682468414307,-0.6333681344985962,2,-0.3636412313951987,-0.5765185561655112,-0.4934777380237453,-0.5402510073872167,0.2640317678451538,-0.9619132280349731,-0.07078281790018082,-9.022445678710938,-49.40248870849609,8.2491455078125,2
1596230383.908553,108,0,102716.080719625,0.2984438950260908,1.39886743591679,1.317435316693806,1.347587943077087,-1.44132399559021,0.6876944899559021,0.2766509652137756,0.0731310248374939,0.05746865272521973,2,-0.3874946644032657,-0.5730672780654162,-0.4796441003450248,-0.5397993622234607,0.2469636499881744,-0.9680753946304321,-0.04288356006145477,-8.761177062988281,-49.04505920410156,10.25466918945312,2
1596230383.920315,109,0,102716.110817625,0.1792900787322428,1.481955599425691,1.330788504111742,0.5743268132209778,-0.8147885203361511,-0.1269100904464722,-0.2148198187351227,0.1504414677619934,0.3743222951889038,2,-0.4061326689129883,-0.5696586432567886,-0.4670185934299781,-0.5407761950148058,0.2367726564407349,-0.9713361263275146,-0.02109057083725929,-8.796485900878906,-48.83465576171875,11.60604858398438,2
1596230383.966416,110,0,102716.140916625,0.1173133277791031,1.526191837057271,1.317081792834955,0.5430161356925964,-0.3190872073173523,-0.7185441255569458,-0.09593263268470764,-0.1346457600593567,0.1183933019638062,2,-0.4094600994893743,-0.5716173459777916,-0.4557459576766588,-0.5457945231224572,0.2507516741752625,-0.9679867625236511,-0.01119207311421633,-7.990669250488281,-48.46324157714844,12.84848022460938,2
1596230383.980529,111,0,102716.171014625,0.05479153658826975,1.576171241381698,1.297717884513844,0.3915543854236603,-0.3368266820907593,-0.4333939850330353,0.3360248506069183,0.005522966384887695,0.2098124027252197,2,-0.4105046621359151,-0.5763772354141817,-0.4436663715608361,-0.5499411600790345,0.2696928977966309,-0.9629452228546143,0.001449590316042304,-7.404777526855469,-48.39984893798828,13.40679931640625,2
1596230384.026988,112,0,102716.201112625,0.03404322802098032,1.578102824652571,1.299155280095316,0.1223450005054474,-1.086639046669006,0.498305469751358,0.1866284608840942,0.02181482315063477,0.03542041778564453,2,-0.4164472608178135,-0.5723214857238476,-0.4387403503429882,-0.5536485230670085,0.2683054506778717,-0.9633318781852722,0.001960408175364137,-6.439659118652344,-48.28526306152344,14.10696411132812,2
1596230384.04058,113,0,102716.231211625,0.01433839784575458,1.571905508558437,1.315317242947248,0.2041366845369339,-0.354679137468338,0.3964135646820068,0.002989470958709717,0.08377623558044434,0.06416177749633789,2,-0.4279648700167635,-0.563015293122146,-0.4364681444512084,-0.5561973548793797,0.2527091801166534,-0.9675423502922058,0.000280300504527986,-6.672248840332031,-48.29140472412109,14.57708740234375,2
1596230384.087338,114,0,102716.261309625,-0.0006460196905072334,1.574045825099055,1.321472744409316,0.09236935526132584,-0.8347986936569214,0.04430680721998215,-0.2387852072715759,-0.06755834817886353,0.06099307537078857,2,-0.4334252803081197,-0.5590558377473346,-0.4344748424876991,-0.5575218801237909,0.2467469573020935,-0.9690795540809631,0.0008018066873773932,-6.840309143066406,-47.90982818603516,14.74679565429688,2
1596230384.100874,115,0,102716.291407625,0.01358936317147509,1.537405266844578,1.316942757548094,-0.4013162851333618,-0.42301344871521,-0.3265728354454041,-0.05136477947235107,0.06079965829849243,0.1736063957214355,2,-0.4361017185374496,-0.5528320102138211,-0.4292541489074209,-0.5656260369780071,0.2509954273700714,-0.9679518342018127,-0.008384118787944317,-6.530075073242188,-47.85892486572266,14.7568359375,2
1596230384.14512,116,0,102716.321505625,0.05835465951309914,1.480795544551007,1.305637129851794,-0.254660964012146,-0.6656532883644104,-0.3044026792049408,0.08744853734970093,-0.01179748773574829,-0.1209991574287415,2,-0.4325794757722818,-0.5487239562683348,-0.4266926252894154,-0.5742041525335897,0.2610022127628326,-0.9650508165359497,-0.02355403453111649,-6.002754211425781,-48.13698577880859,14.6331787109375,2
1596230384.161099,117,0,102716.351604625,0.07458461608221335,1.437703192509642,1.298890532482317,-0.1516164690256119,-1.115336537361145,-0.1471109539270401,-0.07926586270332336,-0.0460822582244873,0.02229267358779907,2,-0.4352379931632065,-0.541062238124301,-0.4203062593069113,-0.5840909208941304,0.2661925852298737,-0.9632608294487,-0.03563908860087395,-5.115013122558594,-48.32971954345703,14.2550048828125,2
1596230384.207184,118,0,102716.381703,0.1001156014779566,1.385841529102256,1.291844829841768,-0.4145117104053497,-0.5389940738677979,-0.2805377542972565,-0.2578884959220886,0.007288992404937744,0.4504125118255615,2,-0.4370151614538735,-0.5326342351585736,-0.4147688863044995,-0.5943780656807488,0.270651638507843,-0.9613446593284607,-0.05063704028725624,-4.750389099121094,-48.32996368408203,14.12933349609375,2
1596230384.221276,119,0,102716.411801,0.1605178176877252,1.324702479140784,1.274792185284441,-0.922917366027832,0.05623270571231842,-0.6232209801673889,-0.101263701915741,-0.009223461151123047,0.1284652948379517,2,-0.4281353077298849,-0.5302532590194089,-0.4156018643061828,-0.6023343797255656,0.2829118669033051,-0.9565097093582153,-0.07106328010559082,-4.063926696777344,-48.49658966064453,13.01071166992188,2
1596230384.269659,120,0,102716.4419,0.2120210234264782,1.277935645855537,1.250060380596514,-0.4907740354537964,0.1867729425430298,-0.4760118722915649,0.1522236466407776,0.04878133535385132,-0.03092324733734131,2,-0.4158744030918035,-0.5306046149411042,-0.4158676502504281,-0.61037787412315,0.3018411993980408,-0.9490036368370056,-0.09101444482803345,-3.425117492675781,-48.85782623291016,12.33834838867188,2
1596230384.281502,121,0,102716.471998,0.263702219438725,1.227764348566441,1.240055370497974,-0.6941635012626648,-0.4438568353652954,0.04788397997617722,0.007317721843719482,-0.05961191654205322,-0.04826170206069946,2,-0.4092086579639467,-0.5271959059327633,-0.4192724986404813,-0.6154861130396226,0.3058236539363861,-0.9458019733428955,-0.1092255041003227,-2.628715515136719,-49.17460632324219,11.25741577148438,2
1596230384.328386,122,0,102716.502096,0.3083544528435911,1.169582287051363,1.22989462004557,-0.5862240195274353,-0.4754606783390045,-0.3728458285331726,-0.01870441436767578,0.02024620771408081,0.05195683240890503,2,-0.4060989912704637,-0.5194210812678507,-0.4192848083161665,-0.6240877823494168,0.3077864348888397,-0.9424535632133484,-0.1305706948041916,-2.682220458984375,-49.40768432617188,10.666259765625,2
1596230384.341653,123,0,102716.532194,0.3476256842163984,1.124780619446204,1.210773909050006,-0.6969898343086243,-0.03658027946949005,-0.2606086432933807,0.06256005167961121,0.08594918251037598,0.1977027654647827,2,-0.3983533937985716,-0.5151009926141203,-0.4191699362091235,-0.6326784629744076,0.3178310692310333,-0.935888946056366,-0.1519710868597031,-1.745399475097656,-49.49491882324219,9.642486572265625,2
1596230384.387901,124,0,102716.562293,0.398084843163134,1.078629942220716,1.199309809062045,-0.779486358165741,-0.06284847855567932,0.04516321420669556,0.1148285865783691,-0.02974832057952881,-0.0264439582824707,2,-0.3908642619264111,-0.5113312749662546,-0.4241664994676906,-0.6370620475224278,0.3199164569377899,-0.9317887425422668,-0.1715309172868729,-1.484931945800781,-49.50924682617188,8.797027587890625,2
1596230384.401931,125,0,102716.592391,0.4565847021947099,1.018440228805576,1.187846495403324,-0.6649948358535767,-0.1608278751373291,-0.007672046776860952,0.04366499185562134,0.08801138401031494,-0.2016119360923767,2,-0.3845037435339914,-0.5041118284470842,-0.4294950027163034,-0.6430879152566262,0.3180915713310242,-0.9275664687156677,-0.1960562765598297,-1.501838684082031,-49.71521759033203,7.298065185546875,2
1596230384.448554,126,0,102716.622489,0.475832731936443,0.993067621522525,1.182958638909521,-0.1046916544437408,-0.3342093527317047,0.02413324266672134,-0.0172761082649231,0.08646959066390991,-0.2237495183944702,2,-0.3832453461631378,-0.4998546486975636,-0.430157462504943,-0.6467091816462949,0.3168095052242279,-0.925728976726532,-0.206536665558815,-1.530181884765625,-49.8681640625,6.766021728515625,2
1596230384.462088,127,0,102716.652588,0.5001628643064309,0.968829417306065,1.176604743809606,-0.5158637762069702,0.07396130263805389,-0.04068112000823021,0.00665050745010376,-0.1294557452201843,0.06320744752883911,2,-0.3799493287865895,-0.4968884589835157,-0.4325858027896416,-0.6493149546190434,0.3165528476238251,-0.9233073592185974,-0.2174807339906693,-1.54632568359375,-49.90027618408203,6.280059814453125,2
1596230384.511779,128,0,102716.682686,0.5321200303046292,0.9391039073092649,1.168513792085534,-0.5678440928459167,-0.0007926649414002895,0.03531457111239433,-0.1320231556892395,0.04503703117370605,0.2628862261772156,2,-0.3753373252192871,-0.4934810500058871,-0.4363819441269232,-0.6520498517921622,0.3159676194190979,-0.9201697111129761,-0.2311966866254807,-1.608222961425781,-49.86138916015625,5.78045654296875,2
1596230384.522218,129,0,102716.712784,0.5636569658129328,0.9129761019722431,1.156468203253156,-0.4541855752468109,0.2000998556613922,-0.1389413923025131,-0.06591856479644775,0.05346453189849854,0.03867501020431519,2,-0.368567038818731,-0.4910117129875672,-0.4404641138352458,-0.6550245665030769,0.3185683488845825,-0.9153870344161987,-0.2461316734552383,-1.626785278320312,-49.98438262939453,4.6812744140625,2
1596230384.565403,130,0,102716.742883,0.5841625693318425,0.901405222831369,1.146141103473981,-0.4435010552406311,0.3595932126045227,-0.1222854480147362,0.05601844191551208,0.01302266120910645,-0.1229075789451599,2,-0.3620081200598721,-0.4910430420932094,-0.4439678353011178,-0.6562921909581177,0.3230955004692078,-0.911180853843689,-0.2556537091732025,-1.599357604980469,-50.28182983398438,3.91363525390625,2
1596230384.582478,131,0,102716.772981,0.6059609419249234,0.8929242309997589,1.136942988154293,-0.3557832539081573,0.3407392799854279,0.06241130456328392,0.1395003199577332,0.03756958246231079,-0.0560462474822998,2,-0.3548925874821421,-0.4921752426685922,-0.4486519837746537,-0.6561448160333442,0.3274299502372742,-0.9073526859283447,-0.2636295557022095,-1.436424255371094,-50.34955596923828,3.372283935546875,2
1596230384.628772,132,0,102716.803079,0.6253315349582121,0.87556665785105,1.132629669170348,-0.2356656789779663,-0.3113968372344971,0.001141749089583755,0.008454620838165283,0.01359784603118896,-0.1317259669303894,2,-0.3523261636528596,-0.489875008639551,-0.4515193866959458,-0.6572814568098981,0.3258073329925537,-0.9055310487747192,-0.2717775106430054,-1.239036560058594,-50.21955871582031,2.935089111328125,2
1596230384.642684,133,0,102716.833177,0.6331499139463203,0.8575443745424386,1.127534992848604,-0.1587720364332199,-0.3890101909637451,-0.06698228418827057,0.04907920956611633,0.07568037509918213,-0.09459561109542847,2,-0.3524500612406856,-0.4852515096854393,-0.4504455039664026,-0.6613688758388769,0.3243413865566254,-0.9033577442169189,-0.2806198596954346,-1.372856140136719,-50.09126281738281,2.687957763671875,2
1596230384.689535,134,0,102716.863276,0.6424100287659857,0.8380027243242347,1.124493601028824,-0.2166156321763992,-0.3611215651035309,0.08507409691810608,-0.02994886040687561,-0.05078291893005371,-0.053802490234375,2,-0.3533949371259343,-0.4803559238361617,-0.4497972834120892,-0.6648702379159068,0.3208365440368652,-0.9020491242408752,-0.2887403964996338,-1.245033264160156,-50.23137664794922,2.20159912109375,2
1596230384.702893,135,0,102716.893374,0.6585080198481258,0.8155830934714705,1.120459847240352,-0.2625629007816315,-0.1527929157018661,0.0003888285718858242,-0.09917029738426208,0.0276758074760437,0.09639692306518555,2,-0.3529761400596607,-0.4756383355653208,-0.4508654477686774,-0.667754642015969,0.3169299364089966,-0.9003006815910339,-0.2983520328998566,-1.394065856933594,-50.23980712890625,1.93927001953125,2
1596230384.747456,136,0,102716.923472,0.6645140106887161,0.8042932208822586,1.115287357156787,-0.08672028034925461,-0.2152251750230789,-0.111153244972229,-0.007472246885299683,0.03098183870315552,-0.1015139818191528,2,-0.3520145413299738,-0.4727760475990216,-0.4504773371922758,-0.6705510616991506,0.3168918192386627,-0.8980372548103333,-0.3051371574401855,-1.287673950195312,-50.10098266601562,1.577911376953125,2
1596230384.763066,137,0,102716.95357,0.6697357148881641,0.7990613761336188,1.112061297733715,-0.2207007259130478,0.07789528369903564,0.1100151240825653,0.07282730937004089,-0.03953814506530762,0.02858209609985352,2,-0.3506603729804243,-0.4718393908489659,-0.4510623193233845,-0.6715264373157436,0.3173658847808838,-0.8966133594512939,-0.3088097870349884,-1.362495422363281,-50.36539459228516,1.5509033203125,2
1596230384.805295,138,0,102716.983669,0.6854582590275172,0.781340903536942,1.110796950491872,-0.09706742316484451,-0.3124628067016602,0.06399182975292206,-0.07234790921211243,0.03783595561981201,-0.07043588161468506,2,-0.3504594217111174,-0.4685974691395384,-0.4531467082554955,-0.672497219275948,0.3126419186592102,-0.8960527777671814,-0.3151892125606537,-1.39532470703125,-50.43684387207031,1.18902587890625,2
1596230384.823416,139,0,102717.013767,0.6847544765703359,0.7752205359623892,1.10902991061212,-0.05801790207624435,-0.134107381105423,-0.04741707816720009,-0.02413088083267212,0.03079837560653687,-0.01938265562057495,2,-0.3512947026068188,-0.4663457723830406,-0.4517122313626376,-0.6745884872353943,0.3118147552013397,-0.8952668905258179,-0.3182272911071777,-1.461296081542969,-50.61204528808594,1.09405517578125,2
1596230384.869372,140,0,102717.043865,0.6844726074149848,0.770413517096216,1.106684554442201,-0.07664264738559723,-0.1744586825370789,-0.08288314938545227,-0.01760375499725342,-0.01834356784820557,-0.03408676385879517,2,-0.3514964521633846,-0.4645815069110137,-0.4506101347512847,-0.6764353391104474,0.3117429614067078,-0.8942195177078247,-0.3212285339832306,-1.410163879394531,-50.28392028808594,0.93072509765625,2
1596230384.883522,141,0,102717.073964,0.6895947489051437,0.7621439739938898,1.103059093781661,-0.1257229149341583,-0.08894535899162292,0.06123003736138344,0.008864223957061768,0.01439905166625977,0.01614749431610107,2,-0.3507051300489802,-0.4625329212835121,-0.4506471256153441,-0.6782229247218103,0.311312347650528,-0.8925907611846924,-0.3261384069919586,-1.193267822265625,-50.32894897460938,0.828582763671875,2
1596230384.92772,142,0,102717.104062,0.6986288455873445,0.7508977451189429,1.103234899464018,-0.04941317439079285,-0.09829235076904297,0.0639612078666687,-0.02079784870147705,0.01272439956665039,-0.04014843702316284,2,-0.3512292200053462,-0.4603107398099406,-0.4517497415486348,-0.6787298574045455,0.3075178563594818,-0.8926700353622437,-0.3295041024684906,-1.337799072265625,-50.14393615722656,0.571563720703125,2
1596230384.943659,143,0,102717.13416,0.7014008773588541,0.7474553355355092,1.101689515403357,-0.1162255182862282,0.01973324082791805,-0.02856648340821266,-0.03553462028503418,-0.03076845407485962,0.0413392186164856,2,-0.3507432677710395,-0.4595575748030789,-0.4519897618826723,-0.679331367908295,0.3073190152645111,-0.8919724225997925,-0.3315719962120056,-1.367790222167969,-50.12940979003906,0.73388671875,2
1596230384.986592,144,0,102717.164258,0.7064610405835149,0.743899516280262,1.097874445158985,-0.1146914958953857,0.07969745248556137,-0.05252201855182648,-0.05528682470321655,0.02355247735977173,-0.01100385189056396,2,-0.3488386243964254,-0.4590527543204001,-0.4528514586368673,-0.6800792001987093,0.3084402978420258,-0.8902412056922913,-0.3351643681526184,-1.388198852539062,-50.27918243408203,0.44464111328125,2
1596230385.003825,145,0,102717.194357,0.7065161109910384,0.7491944110192672,1.095193075232718,-0.01513868663460016,0.2198836505413055,-0.0598713718354702,0.004428207874298096,0.03192406892776489,0.009187400341033936,2,-0.3465382782644529,-0.4607326571849119,-0.4536242371305215,-0.6796040999865562,0.3118352890014648,-0.8890166878700256,-0.335273265838623,-1.287338256835938,-50.47933197021484,0.439483642578125,2
1596230385.048588,146,0,102717.224455,0.7026178956667655,0.7580782756852322,1.094825464872795,0.0228681955486536,0.08381082117557526,0.008455662056803703,0.09038153290748596,0.002594113349914551,0.006361961364746094,2,-0.3452740516834175,-0.4630576179588676,-0.453813719857015,-0.6785399707636013,0.3150260150432587,-0.8888483047485352,-0.3327269554138184,-1.216171264648438,-50.31979370117188,0.2882080078125,2
1596230385.063968,147,0,102717.254553,0.7126824555361889,0.7471141311653919,1.097595562610495,-0.04016264900565147,-0.1377128660678864,0.2817916870117188,0.02760401368141174,-0.01263290643692017,-0.03366130590438843,2,-0.3465641807960191,-0.4612121819772769,-0.4555055810169088,-0.6780052897210902,0.3096847534179688,-0.8901141285896301,-0.3343531787395477,-1.488502502441406,-50.17616271972656,0.375640869140625,2
1596230385.109216,148,0,102717.284651,0.7188519055424755,0.7382200160831361,1.101982392174913,0.1074357777833939,-0.07387027144432068,0.001900134375318885,0.01275897026062012,0.04922991991043091,-0.01780730485916138,2,-0.3489494734873823,-0.4594919794720659,-0.4563110697933916,-0.677407900279634,0.3040679693222046,-0.8921048045158386,-0.334202766418457,-1.841972351074219,-50.25582885742188,0.3792724609375,2
1596230385.125347,149,0,102717.31475,0.7134352974249433,0.7388911200226277,1.10334123184107,0.05932822078466415,-0.2763217389583588,0.03193723410367966,0.03247874975204468,6.192922592163086e-05,-0.04084968566894531,2,-0.350590718914356,-0.4588409545034899,-0.4546721761985395,-0.6781034068048453,0.3034755289554596,-0.8927179574966431,-0.3331022560596466,-1.651557922363281,-50.17264556884766,0.50335693359375,2
1596230385.166114,150,0,102717.344848,0.7137282888003312,0.728968091823901,1.107823099515642,0.2223781198263168,-0.2742343544960022,0.1344542801380157,-0.02068591117858887,0.002206802368164062,-0.02817749977111816,2,-0.3545916742741194,-0.4557520819264231,-0.45327978740492,-0.6790376108502745,0.2974871397018433,-0.8947286009788513,-0.3331095576286316,-1.831611633300781,-50.19464874267578,0.55450439453125,2
1596230385.184499,151,0,102717.374946,0.7092475830602215,0.7303653862991553,1.111384226468189,0.02432927116751671,0.04339642450213432,-0.03526937216520309,-0.07027050852775574,-0.02176082134246826,0.1053152084350586,2,-0.3567381637298446,-0.4556081832187583,-0.452208236062264,-0.6787244022438743,0.2958249151706696,-0.8963133692741394,-0.3303181231021881,-1.823104858398438,-50.43395233154297,1.073150634765625,2
1596230385.223566,152,0,102717.405044875,0.7098341358293455,0.7317940854814087,1.108586992723857,-0.1373818516731262,0.09116829931735992,-0.06585207581520081,0.001529276371002197,0.01706302165985107,-0.008687376976013184,2,-0.3551488016411099,-0.4560590067597091,-0.4525023380148159,-0.6790589548206112,0.2979705929756165,-0.8950694799423218,-0.3317590355873108,-1.911079406738281,-50.47440338134766,1.0030517578125,2
