loggingTime,loggingSample,identifierForVendor,motionTimestamp_sinceReboot,motionYaw,motionRoll,motionPitch,motionRotationRateX,motionRotationRateY,motionRotationRateZ,motionUserAccelerationX,motionUserAccelerationY,motionUserAccelerationZ,motionAttitudeReferenceFrame,motionQuaternionX,motionQuaternionY,motionQuaternionZ,motionQuaternionW,motionGravityX,motionGravityY,motionGravityZ,motionMagneticFieldX,motionMagneticFieldY,motionMagneticFieldZ,motionMagneticFieldCalibrationAccuracy
1596230372.579803,1,0,102704.763675,0.4541101093061566,1.036881013094498,0.9594682352143523,0.1250080317258835,0.09486343711614609,0.06731507182121277,-0.03065764904022217,-0.07118505239486694,-0.1026591658592224,2,-0.2916480620844412,-0.5185520526593922,-0.3962932405664046,-0.6992831105120891,0.4940730631351471,-0.8188864588737488,-0.2920903563499451,8.01641845703125,-49.32427978515625,1.67144775390625,2
1596230372.603399,2,0,102704.793774,0.4512929408612883,1.04049189403451,0.9648566511425902,-0.1052633449435234,0.1031530648469925,0.1308496594429016,0.03571021556854248,0.05318421125411987,0.09402370452880859,2,-0.2938225366043127,-0.5192630964548844,-0.3967502718256256,-0.6975838853409855,0.4913108050823212,-0.8219673037528992,-0.2880682945251465,8.013389587402344,-49.362060546875,1.952850341796875,2
1596230372.633493,3,0,102704.823873,0.4576624051712106,1.037959133013717,0.9665347178682531,0.08768720179796219,0.004182812757790089,0.06284718215465546,-0.0006737112998962402,-0.01899886131286621,-0.04380851984024048,2,-0.2933446203650187,-0.5192721804482267,-0.3988818072584716,-0.6965619313392379,0.4893907904624939,-0.8229218125343323,-0.2886106669902802,7.698455810546875,-49.5478515625,1.94708251953125,2
1596230372.663671,4,0,102704.853971,0.457358991815573,1.037971006880421,0.966608294847322,-0.1500029116868973,-0.0189492292702198,-0.06671732664108276,-0.06712222099304199,-0.01567566394805908,0.02542930841445923,2,-0.2934504998609663,-0.5192299531555622,-0.3987902301280885,-0.6966012636876127,0.4893420934677124,-0.8229636549949646,-0.2885741293430328,7.64849853515625,-49.41135406494141,1.846893310546875,2
1596230372.693561,5,0,102704.88407,0.4574778626335255,1.039218234505485,0.9623020699493862,0.03360303491353989,0.0975116491317749,-0.1240338236093521,-0.004339903593063354,0.02959680557250977,-0.01695054769515991,2,-0.2914457608600997,-0.5197891454220189,-0.3982885773191795,-0.6973124603457945,0.4927518665790558,-0.820509672164917,-0.2897572219371796,7.837158203125,-49.30337524414062,1.575958251953125,2
1596230372.723649,6,0,102704.914169,0.4576064853184089,1.040610518811408,0.9617336219626416,-0.06726861745119095,-0.03880894184112549,0.105714313685894,0.04390084743499756,0.009277999401092529,-0.0116085410118103,2,-0.2909072135965872,-0.5203072201052122,-0.3984400090971822,-0.6970644893801129,0.4935572147369385,-0.820184588432312,-0.2893067896366119,7.952560424804688,-49.26519012451172,1.626251220703125,2
1596230372.755822,7,0,102704.944268,0.4608228528760349,1.035041992662954,0.9654698208797744,0.06747501343488693,-0.1429133117198944,0.1247049495577812,-0.01056092977523804,0.01362061500549316,-0.008309066295623779,2,-0.292679889014106,-0.5187449331186601,-0.3993768204941276,-0.6969507657548816,0.4893002212047577,-0.8223163485527039,-0.2904843389987946,7.791557312011719,-49.34556579589844,1.632476806640625,2
1596230372.7839,8,0,102704.974366,0.4617797848937726,1.029202638788685,0.9681934014787071,0.01703077927231789,-0.1404566466808319,0.03091299720108509,-0.06987437605857849,-0.003732085227966309,-0.01255607604980469,2,-0.2946904452329934,-0.516785384526345,-0.3993064629060495,-0.6975991538993112,0.4856745004653931,-0.8238630890846252,-0.2921808063983917,7.603263854980469,-49.13280487060547,1.702789306640625,2
1596230372.814035,9,0,102705.004465,0.4600445917802089,1.030120723113586,0.9676407964818694,-0.001204168424010277,0.1190607473254204,-0.06092400476336479,-0.003097772598266602,0.008752286434173584,0.008317232131958008,2,-0.2947339756974172,-0.5168629488875688,-0.3987446768258186,-0.6978446620113816,0.486332893371582,-0.823549747467041,-0.2919691503047943,7.657814025878906,-49.36492156982422,1.562744140625,2
1596230372.844243,10,0,102705.034564,0.4630118421456914,1.039817339715266,0.9668944590406404,-0.09789709746837616,0.6458340883255005,0.09902897477149963,0.02803421020507812,0.00473707914352417,0.06855130195617676,2,-0.2917262637541572,-0.5206922117753744,-0.401074971914395,-0.6949202034679088,0.4896708726882935,-0.8231261968612671,-0.2875508069992065,7.616409301757812,-49.21336364746094,1.74554443359375,2
1596230372.874124,11,0,102705.064662,0.4639969392469819,1.046464860648222,0.9691417149067904,0.2361472696065903,-0.227684810757637,-0.05154301226139069,0.009116321802139282,0.02412503957748413,-0.3093658685684204,2,-0.2910324459215696,-0.523085790609441,-0.4027631680877605,-0.6924328311891548,0.4899692535400391,-0.8244002461433411,-0.2833627462387085,7.551780700683594,-49.31591796875,1.90594482421875,2
1596230372.906715,12,0,102705.094761,0.4449939875078785,1.057249660648647,0.9728387794702796,0.4376420378684998,-0.00790207926183939,0.07259035855531693,0.06083539128303528,0.08967107534408569,-0.1423537731170654,2,-0.2953217044324962,-0.5239309288090569,-0.3983961378935405,-0.6925041825379934,0.4903386533260345,-0.826487123966217,-0.2765629589557648,7.630012512207031,-49.54045867919922,2.345550537109375,2
1596230372.934392,13,0,102705.12486,0.4303290810556231,1.074852165415743,0.989131850683111,0.5616416931152344,0.1919887363910675,0.4829312264919281,-0.2041218280792236,-0.06844079494476318,-0.2117840647697449,2,-0.3021324018812666,-0.5272504054983842,-0.3988155266501915,-0.6867817221995657,0.483221709728241,-0.8355492949485779,-0.2614460289478302,7.575859069824219,-49.52186584472656,2.74298095703125,2
1596230372.964598,14,0,102705.154958,0.4001065815635341,1.096166335907706,1.000970490971485,0.7153500914573669,-0.2108320891857147,-0.4059767127037048,-0.2500529885292053,0.1014686226844788,-0.2387544512748718,2,-0.3105520971651359,-0.5294171039471977,-0.3938516633113284,-0.6842190680624269,0.479851633310318,-0.8419949412345886,-0.2465498447418213,6.778053283691406,-49.64199066162109,3.968780517578125,2
1596230372.994576,15,0,102705.185057,0.3478010959804137,1.145715621112923,0.9948317429884963,0.8086622953414917,0.3548189103603363,-0.5290988683700562,-0.04221659898757935,0.06866174936294556,-0.118874728679657,2,-0.3125120565262874,-0.5385463687616568,-0.3825175452918513,-0.6826304120896146,0.4961735606193542,-0.8386673331260681,-0.2246080487966537,7.591636657714844,-49.35520935058594,4.6622314453125,2
1596230373.024733,16,0,102705.215156,0.3025985987129021,1.189258577886324,0.9950586383615058,0.7579957246780396,0.04867333546280861,-0.2004959881305695,-0.1212037801742554,0.0780336856842041,-0.02174556255340576,2,-0.316622970437628,-0.5462478708462196,-0.3740208051922792,-0.6793170374107138,0.5053038001060486,-0.8387908935546875,-0.2027263194322586,8.321281433105469,-49.12530517578125,6.094085693359375,2
1596230373.056447,17,0,102705.245255,0.2488603411040728,1.241524705083834,0.9965109604672899,1.012718677520752,0.5154648423194885,-0.3974157571792603,0.1307937502861023,0.1438371539115906,0.06127476692199707,2,-0.3223182468017176,-0.5552318424979097,-0.3645010451091577,-0.6745127856253144,0.5140512585639954,-0.8395807147026062,-0.1756570935249329,8.748184204101562,-48.79022979736328,6.847137451171875,2
1596230373.084941,18,0,102705.275353,0.2009405312419537,1.305462158034943,0.99457499308194,0.608539342880249,0.8188625574111938,-0.09441781044006348,0.2790342569351196,-0.01291561126708984,0.07716882228851318,2,-0.3235251113569668,-0.5691149353922931,-0.3583062280860686,-0.6656247167745437,0.5257918238639832,-0.838527500629425,-0.142879381775856,8.986473083496094,-48.37165069580078,8.879730224609375,2
1596230373.115143,19,0,102705.305452,0.1621656294811785,1.350602055402274,1.005080063520416,0.8582984805107117,0.005058258771896362,0.3403712809085846,0.0311896800994873,-0.05769830942153931,-0.005975842475891113,2,-0.3303322398591461,-0.5764911224991217,-0.355508953963124,-0.6573826603292404,0.5230783820152283,-0.8442049026489258,-0.1170771941542625,8.864669799804688,-48.27476501464844,9.7830810546875,2
1596230373.145112,20,0,102705.335551,0.1262079888616193,1.379488674262394,1.018297228946974,0.6422059535980225,0.1237441003322601,0.1883194446563721,-0.2070215940475464,-0.00190126895904541,0.1975253224372864,2,-0.3402234669060689,-0.5782326327880318,-0.3520327262426183,-0.6526622023869526,0.5152415633201599,-0.8512156009674072,-0.09979002922773361,8.097213745117188,-48.18672943115234,11.15878295898438,2
1596230373.175173,21,0,102705.365649,0.08755994793459007,1.429964121025422,1.02185264264402,0.5955770015716553,1.004701137542725,-0.152696430683136,-0.2823634743690491,-0.0858156681060791,0.3795085549354553,2,-0.3438527788568291,-0.5874899416393287,-0.3491010002297041,-0.6440103786658512,0.5166205167770386,-0.853076159954071,-0.07324167340993881,8.023231506347656,-48.09690856933594,11.82818603515625,2
1596230373.205298,22,0,102705.3957471667,0.06436108674344694,1.491031034247505,1.01745812799368,0.2391029894351959,1.690801858901978,-0.2097448855638504,-0.2128418684005737,-0.06678587198257446,0.3822757601737976,2,-0.3386199868381377,-0.6036548665627393,-0.3508781947031956,-0.6307310530035962,0.5238590240478516,-0.8507749438285828,-0.04187461361289024,7.667762756347656,-47.56370544433594,13.09274291992188,2
1596230373.23529,23,0,102705.4258461667,0.05855832840971555,1.551392650423501,1.010226096831931,0.006976913195103407,2.046505212783813,-0.2703219950199127,-0.05250483751296997,0.02412664890289307,0.1931830644607544,2,-0.3273901131594745,-0.6226217710481596,-0.3569828808061055,-0.6145901049819248,0.5315690040588379,-0.8469520807266235,-0.01031568832695484,7.70123291015625,-47.55626678466797,13.71408081054688,2
1596230373.265656,24,0,102705.4559441667,0.06276148809646742,1.61082933129778,1.004474875461583,-0.1752936989068985,2.138535499572754,-0.152350127696991,-0.0760962963104248,-0.09971427917480469,0.2135889530181885,2,-0.3135157952495254,-0.6422183885572473,-0.366019572102513,-0.5960646056306047,0.5361014604568481,-0.8438803553581238,0.0214732252061367,7.180091857910156,-47.521728515625,14.2562255859375,2
1596230373.295612,25,0,102705.4860431667,0.07071078126032854,1.659701264695838,0.9960440282627222,-0.01578900963068008,1.309123516082764,-0.3830960392951965,0.3989208340644836,0.1246286034584045,-0.4763811826705933,2,-0.2993189225781355,-0.6591979375300113,-0.3731942828853637,-0.580165763004384,0.5414799451828003,-0.8393269777297974,0.04826747626066208,6.860572814941406,-47.37131500244141,14.58566284179688,2
1596230373.325633,26,0,102705.5161421667,0.07328423846640404,1.691434331221288,0.9924059197973109,-0.06428320705890656,0.9773156046867371,0.268329918384552,0.3730682730674744,0.08408987522125244,0.05402982234954834,2,-0.2914165517184877,-0.6693066971624034,-0.3774542122473869,-0.5697658476535159,0.54270339012146,-0.8373436331748962,0.06579012423753738,6.550361633300781,-47.38964080810547,14.82638549804688,2
1596230373.355803,27,0,102705.5462411667,0.06682229008431408,1.70999205402456,1.007925871310639,0.1121591180562973,0.02244003117084503,0.5521219968795776,0.02404659986495972,-0.009082019329071045,-0.1757198572158813,2,-0.2946396666474872,-0.6709740415243318,-0.3833731742673078,-0.5621442349533599,0.5284544825553894,-0.8457268476486206,0.07403739541769028,5.390274047851562,-47.53104400634766,15.18768310546875,2
1596230373.385878,28,0,102705.5763391667,0.06851695387831989,1.70989141837898,1.018164026257125,-0.2700096666812897,0.2509811222553253,0.1278842389583588,-0.08337610960006714,0.005581319332122803,0.2178274393081665,2,-0.2970904137864711,-0.6694230453391665,-0.3871542910660658,-0.5601084310962501,0.5198593139648438,-0.8511456847190857,0.07277985662221909,5.043731689453125,-47.44524383544922,15.18930053710938,2
1596230373.415882,29,0,102705.6064381667,0.09467824196752121,1.701127334595204,1.020285383156975,-0.527485728263855,0.5481141805648804,-0.06421343982219696,-0.207080066204071,-0.09016996622085571,0.2283474206924438,2,-0.2906628961948552,-0.6704537353706954,-0.393859296577415,-0.5575676808375855,0.5186861157417297,-0.8522573709487915,0.06798625737428665,4.582138061523438,-47.73998260498047,14.38882446289062,2
1596230373.4461,30,0,102705.6365371667,0.1150906637284298,1.699694322356942,1.019527412427636,-0.08378042280673981,0.6010949611663818,-0.0821150615811348,0.002103269100189209,0.086536705493927,-0.003054261207580566,2,-0.2838652882289808,-0.6731147280970914,-0.399084971854995,-0.5541372245385892,0.5194231271743774,-0.8518605828285217,0.06732587516307831,4.596046447753906,-48.01537322998047,14.18521118164062,2
1596230373.476147,31,0,102705.6666351667,0.1135852722512896,1.715097858960501,1.016709586465818,0.1963284462690353,0.2562470734119415,-0.09661015868186951,0.1816735863685608,0.10089111328125,-0.1998748779296875,2,-0.2804598790195783,-0.6776237629131162,-0.3999426869872098,-0.5497399234202209,0.5206978917121887,-0.8503813147544861,0.07566341757774353,4.33953857421875,-48.04906463623047,14.1597900390625,2
1596230373.508957,32,0,102705.6967341667,0.1087945593334983,1.716291482816136,1.015111775669067,-0.00214843638241291,-0.4590324461460114,0.1010709330439568,0.04612630605697632,-0.1441335082054138,-0.1476799249649048,2,-0.2813725524563097,-0.6775473213673435,-0.3982794442168794,-0.5505746343383133,0.521950900554657,-0.8495395183563232,0.07648177444934845,4.701980590820312,-47.86589050292969,14.50845336914062,2
1596230373.536387,33,0,102705.7268331667,0.09528485077298171,1.710009932345449,1.018674722365251,0.5590471625328064,-0.6276363134384155,0.09042898565530777,-0.1593471169471741,0.01407694816589355,-0.2736436128616333,2,-0.2882317952566912,-0.6732852531097793,-0.3947969410996989,-0.5547475280140526,0.5194206237792969,-0.8514136672019958,0.07278119772672653,4.341804504394531,-47.93490600585938,14.31494140625,2
1596230373.566789,34,0,102705.7569311667,0.06176480884280036,1.726794202410473,1.014530629410253,0.4524177610874176,-0.134868785738945,-0.1332704275846481,-0.103411853313446,0.1411699056625366,-0.02423596382141113,2,-0.2950304291373147,-0.6737767220169897,-0.3865892459316366,-0.5563547124670649,0.5216065049171448,-0.8492327928543091,0.08203604817390442,4.419990539550781,-47.64923858642578,14.97308349609375,2
1596230373.596558,35,0,102705.7870301667,0.03800552029543161,1.751649313114278,1.009104718335399,0.3645365834236145,0.2486196607351303,-0.06630349904298782,0.05580669641494751,-0.04057955741882324,0.02406704425811768,2,-0.2967299175885013,-0.6781239065924337,-0.3818827415433118,-0.5534118529526362,0.5239315629005432,-0.8463553190231323,0.09580135345458984,4.994346618652344,-47.46052551269531,15.83029174804688,2
1596230373.629175,36,0,102705.8171291667,0.02066476520327349,1.764308345414369,1.007662033378158,0.2538633346557617,-0.2690182030200958,0.1178229451179504,0.124483048915863,-0.1022419333457947,0.1496216058731079,2,-0.2998014535195974,-0.6793007083462611,-0.3784924624878159,-0.5526418552606185,0.523874819278717,-0.8455860614776611,0.1026607304811478,4.698966979980469,-47.23626708984375,16.11322021484375,2
1596230373.657035,37,0,102705.8472271667,0.01807290559236968,1.762575082307011,1.013782854295163,-0.1395798325538635,0.0394272617995739,0.2602751851081848,0.0134049654006958,0.0910717248916626,0.2089779376983643,2,-0.3027226071631406,-0.6773042843055757,-0.379572773130183,-0.5527588517544118,0.5189613699913025,-0.8488377332687378,0.1007641404867172,4.674484252929688,-47.15758514404297,16.34979248046875,2
1596230373.686877,38,0,102705.8773261667,0.01882098266776057,1.765948529151103,1.022629647389863,-0.1789695620536804,0.3650199472904205,0.3304833173751831,-0.05702239274978638,-0.07673710584640503,0.367985725402832,2,-0.3042958916876648,-0.6767060299435719,-0.383260309435867,-0.5500767942781877,0.5112314820289612,-0.8534813523292542,0.1010540798306465,4.586738586425781,-47.42044067382812,16.25372314453125,2
1596230373.716992,39,0,102705.9074251667,0.04914190514145036,1.755345352533104,1.03574980488394,-0.87269127368927,0.410668820142746,0.209284782409668,-0.02183759212493896,-0.03672415018081665,0.4234437942504883,2,-0.2997824510150597,-0.6759533043332728,-0.3943320702181645,-0.54563697227704,0.501222550868988,-0.8602449297904968,0.09356477856636047,3.762687683105469,-47.60733795166016,15.8258056640625,2
1596230373.749902,40,0,102705.9375231667,0.1173704959091662,1.706040869849565,1.038811594111175,-1.674759149551392,0.5604862570762634,-0.298031210899353,0.3234178423881531,-0.01041138172149658,0.433882474899292,2,-0.2875485631291049,-0.6719467125553954,-0.4067411935021672,-0.5480556121733284,0.5026126503944397,-0.8618020415306091,0.06839311867952347,3.601585388183594,-47.93518829345703,15.197021484375,2
1596230373.777269,41,0,102705.9676221667,0.2408065743599347,1.603756904029117,1.042069055990162,-2.236052513122559,-0.5320482850074768,0.2135925590991974,-0.07474255561828613,-0.2023903131484985,0.004209160804748535,2,-0.2687615245160662,-0.6603627535736929,-0.4275831793650004,-0.5557524792704525,0.5041606426239014,-0.86344975233078,0.01662344671785831,3.538581848144531,-48.67450714111328,12.10836791992188,2
1596230373.810068,42,0,102705.9977211667,0.3906137866683219,1.462857416867658,1.041908210811042,-3.146712303161621,0.3862559795379639,-0.3025429844856262,-0.3142193555831909,-0.3356055021286011,0.08935481309890747,2,-0.2509335780483524,-0.6401981230167574,-0.4513855880372401,-0.5687087022905779,0.5016368627548218,-0.8633686304092407,-0.05435740575194359,3.495437622070312,-49.01911926269531,10.02276611328125,2
1596230373.837301,43,0,102706.0278191667,0.6285457776870063,1.31576143459622,0.9882083649253334,-6.547985553741455,3.315698862075806,-1.737448215484619,-0.6480954885482788,-0.6580037474632263,0.01810193061828613,2,-0.190479003852168,-0.6279470057710355,-0.4911204717335625,-0.5728881438753053,0.5323905348777771,-0.8350415825843811,-0.1388006210327148,4.151031494140625,-49.83837890625,3.890350341796875,2
1596230373.870006,44,0,102706.0579181667,0.9854131736696011,1.220049456041512,0.8449087105927969,-9.907882690429688,8.716625213623047,-2.408490419387817,-0.9664944410324097,-0.2805761098861694,1.489074945449829,2,-0.04891930223798174,-0.6193273640086642,-0.5605587026665887,-0.547553088280104,0.623384952545166,-0.7479104995727539,-0.2280810326337814,8.741851806640625,-48.18780517578125,-8.397186279296875,2
1596230373.897556,45,0,102706.0880171667,1.358096544922384,1.234224523185758,0.6646462924521329,-10.41017055511475,9.617258071899414,-2.657265186309814,-0.8997501134872437,0.8169477581977844,1.025592803955078,2,0.1365132953144382,-0.5927792228573695,-0.6310960167402935,-0.4813467313680502,0.7429707050323486,-0.6167807579040527,-0.2599538266658783,12.86024475097656,-45.05487823486328,-15.67391967773438,2
1596230373.929521,46,0,102706.1181161667,1.693009797839591,1.370331731511184,0.50280290378366,-11.02666282653809,11.70321941375732,-2.61825966835022,-0.1080610752105713,0.636894702911377,1.498876929283142,2,0.3314193343752488,-0.5503827747258934,-0.66601194947866,-0.3790357891509772,0.8586879968643188,-0.4818834364414215,-0.1744800508022308,25.43191528320312,-34.16347503662109,-23.00497436523438,2
1596230373.95765,47,0,102706.1482141667,2.046901874184711,1.561751719263722,0.3786115674744541,-10.70123291015625,10.37599086761475,-3.172833681106567,0.3158578872680664,-1.029497861862183,1.015217185020447,2,0.5207696137834231,-0.4739167003416351,-0.6646278441032262,-0.2499432941679684,0.929140567779541,-0.3696307241916656,-0.008403941057622433,32.47833251953125,-27.32929992675781,-22.52322387695312,2
1596230373.990393,48,0,102706.1783131667,2.384928633500518,1.729869368792933,0.3287183676100437,-10.48377799987793,8.902787208557129,-1.649550676345825,0.3528526425361633,0.04820206761360168,1.444015622138977,2,0.6584971386648014,-0.3759552051407857,-0.6406872105997388,-0.1206604326503761,0.9345072507858276,-0.3228302896022797,0.1499215960502625,43.49992370605469,-14.43437957763672,-15.2596435546875,2
1596230374.017908,49,0,102706.2084121667,2.706916588479508,1.895696780988104,0.3813658342263454,-9.955132484436035,9.077093124389648,0.4607821702957153,0.9418951272964478,1.070583343505859,0.941003680229187,2,0.7548378088092953,-0.2799293406528267,-0.5925723857269301,0.0267817338128841,0.879598081111908,-0.372188538312912,0.296281099319458,46.06607055664062,-10.44155120849609,-9.35870361328125,2
1596230374.049626,50,0,102706.2385101667,2.942140544763873,2.018107215055354,0.5341167337772892,-5.780625343322754,5.16357421875,3.348696947097778,0.7400434613227844,1.741001129150391,-0.2198183536529541,2,0.7982760136392444,-0.221142707176044,-0.5334631007911004,0.171079953039096,0.7760354280471802,-0.5090810060501099,0.3722973763942719,47.19645690917969,-10.83819198608398,2.653167724609375,2
1596230374.078232,51,0,102706.2686091667,2.922564825164844,2.036074282283577,0.6563649209507891,4.336415767669678,-3.068680286407471,3.893150806427002,1.938414335250854,1.455812215805054,1.261466979980469,2,0.7823341303110329,-0.2562722080205496,-0.5240206391070841,0.21835764131264,0.7080004811286926,-0.6102411150932312,0.3554442822933197,46.20755004882812,-14.30503463745117,4.595550537109375,2
1596230374.109925,52,0,102706.2987071667,2.650616725944455,2.06164762931849,0.6102134083134424,5.393573760986328,-8.339230537414551,0.6917369365692139,1.041795015335083,1.090012788772583,0.246360182762146,2,0.7560482365341132,-0.3486312995599044,-0.5382842238378384,0.1307568090385295,0.7227658629417419,-0.5730423927307129,0.3863054513931274,44.52696228027344,-19.21274185180664,2.4365234375,2
1596230374.138467,53,0,102706.3288061667,2.582837898699478,1.824346362086013,0.6164136575712026,-1.646618723869324,-5.553797245025635,1.99114727973938,-0.6706917881965637,-0.3847978115081787,2.558345317840576,2,0.6731559323138574,-0.386263161196594,-0.6267315240687699,0.06978025405160021,0.7898690104484558,-0.5781126022338867,0.2046762704849243,43.97880554199219,-19.95965194702148,-3.76434326171875,2
1596230374.16993,54,0,102706.3589051667,2.670780263010029,1.769081902687737,0.7220554015414058,-1.438686609268188,3.964827299118042,2.180273771286011,-3.645493268966675,-0.8507813215255737,-1.252122640609741,2,0.6515859255814979,-0.3864592667104334,-0.6401840926973908,0.1274723594589771,0.7357441186904907,-0.6609285473823547,0.1478299647569656,40.5302734375,-22.79851531982422,-12.27163696289062,2
1596230374.198587,55,0,102706.389003875,2.648043399669326,1.973998626378028,0.7039089136097201,1.321471810340881,7.446040630340576,-2.655887126922607,-0.947242796421051,0.5124117732048035,0.5423092842102051,2,0.7130849525549293,-0.3755843124186772,-0.571996502463983,0.152532060186092,0.7011868953704834,-0.6472024321556091,0.2991074621677399,40.87960815429688,-23.82139587402344,-9.09991455078125,2
1596230374.229834,56,0,102706.419101875,2.757673835732029,2.072307664150837,0.5967770787847658,-2.756024122238159,2.468723297119141,-5.869546890258789,1.216845273971558,0.7926669716835022,-0.03406476974487305,2,0.7787447662505502,-0.3039466046918765,-0.5263319946339629,0.1553948860243085,0.7252930998802185,-0.5619795322418213,0.3976539075374603,44.37509155273438,-19.34001159667969,2.04864501953125,2
1596230374.258671,57,0,102706.449200875,2.857239586932272,2.057752056950239,0.5020992533300971,1.083887934684753,-0.4593333601951599,-1.219770312309265,2.319173097610474,0.2083835601806641,-0.914546012878418,2,0.8033342412656165,-0.2444281827664792,-0.5247295122448493,0.1398853523206512,0.7746825218200684,-0.4812667369842529,0.4101820886135101,46.22871398925781,-14.85208892822266,3.904266357421875,2
1596230374.290204,58,0,102706.479299875,2.781674367632613,2.01692128319034,0.5284767768919143,1.579009771347046,-3.159436464309692,4.03945779800415,0.1236408352851868,-0.7769278287887573,0.2312040328979492,2,0.7785363983179443,-0.2831712444667572,-0.5458960870486884,0.1252699034735839,0.7790542840957642,-0.5042185187339783,0.3726097643375397,46.71551513671875,-12.50160217285156,2.780487060546875,2
1596230374.318949,59,0,102706.509397875,2.698699080590663,2.005809483118557,0.6362056726601039,-0.524213433265686,-0.4764757752418518,3.541460514068604,-0.7573454976081848,-0.386915922164917,0.6075073480606079,2,0.7442399349926905,-0.3399906837407351,-0.5563100001640044,0.1450253413681155,0.7294417023658752,-0.5941477417945862,0.3389734923839569,44.33229064941406,-19.32462310791016,-0.85784912109375,2
1596230374.349797,60,0,102706.539496875,2.699633624198332,2.035560889860538,0.6929797081692113,-0.6601445078849792,1.997097611427307,-0.2915487885475159,-0.8970819115638733,0.340811014175415,-0.1528694629669189,2,0.7418131835056746,-0.3494686171247114,-0.545366763515315,0.1736658969279303,0.6877389550209045,-0.6388324499130249,0.3448302149772644,43.45301818847656,-21.55274963378906,-0.572021484375,2
1596230374.379136,61,0,102706.569595875,2.733551067735009,2.066532775043513,0.6559666489465331,0.09265337884426117,1.249902606010437,-2.082735300064087,-0.2235173583030701,0.2495445609092712,-0.2896500825881958,2,0.7629039314187877,-0.3262757141831679,-0.530732036831028,0.1727580616526143,0.6970615983009338,-0.6099255681037903,0.3769564926624298,44.14959716796875,-20.26937866210938,1.98162841796875,2
1596230374.409744,62,0,102706.599693875,2.760140353554359,2.072021981790357,0.6115421886105099,0.04668392613530159,0.06896425038576126,-0.8376250267028809,0.4886977076530457,-0.203424334526062,-0.168974757194519,2,0.7765074504847249,-0.3061770834858004,-0.526301744452689,0.1621669977162701,0.7180508375167847,-0.5741308331489563,0.3934164643287659,44.66477966308594,-18.5679817199707,2.8310546875,2
1596230374.439323,63,0,102706.629792875,2.754882395004857,2.064260095285676,0.6171629352806652,-0.04368873313069344,-0.5732752084732056,1.097293138504028,0.405554473400116,-0.0994340181350708,-0.03948938846588135,2,0.7726699086878831,-0.3100475627961832,-0.5297468091596959,0.1619257993951138,0.7182294130325317,-0.5787237882614136,0.3862965703010559,45.04432678222656,-18.0526123046875,2.7803955078125,2
1596230374.488512,64,0,102706.659891875,2.735073341684504,2.056827748302407,0.6500731489869636,0.09790568053722382,-0.5932305455207825,1.007583737373352,-0.1942377686500549,0.08060026168823242,-0.01965451240539551,2,0.7616519313020242,-0.3252836586810617,-0.5342923461272276,0.1691399233326484,0.7038527131080627,-0.6052446365356445,0.3718462586402893,44.53884887695312,-18.92263412475586,2.43072509765625,2
1596230374.499543,65,0,102706.689989875,2.722079830318057,2.052208310302505,0.6581327316533943,0.04747287929058075,-0.2518682181835175,-0.2891003787517548,-0.394797682762146,0.1784682869911194,0.122100830078125,2,0.756789304140646,-0.3323103101924574,-0.5371564198979293,0.1682340263260845,0.7012166380882263,-0.6116406321525574,0.3663203716278076,44.15475463867188,-20.1573486328125,1.4300537109375,2
1596230374.547641,66,0,102706.720088875,2.741260503373936,2.035284016486929,0.6417340147260084,-0.3029252886772156,-0.1716400980949402,-0.8820629715919495,-0.06915199756622314,0.1092202663421631,0.03116607666015625,2,0.7583773036562611,-0.3229349130217908,-0.5419631371104235,0.1638681368824505,0.716187596321106,-0.5985853672027588,0.3588461875915527,44.13320922851562,-19.84907531738281,1.138824462890625,2
1596230374.559684,67,0,102706.750187875,2.752836442815244,2.017363846427036,0.6262129737675897,0.1749183088541031,-0.6207374334335327,-0.230599582195282,0.2773697972297668,0.07895177602767944,-0.1994770765304565,2,0.7581231770711951,-0.3165628801805372,-0.5478553985186838,0.1577706372402853,0.7307950854301453,-0.5860804915428162,0.3499256074428558,44.51258850097656,-18.40031814575195,0.8150634765625,2
1596230374.589952,68,0,102706.780285875,2.742910852424941,1.993520256454436,0.6256443821707154,0.2795044481754303,-1.263595819473267,0.3182606995105743,0.2975180745124817,0.03249472379684448,-0.1890717744827271,2,0.7500496478216662,-0.3220175964710428,-0.557613314165427,0.1509880871801756,0.739233672618866,-0.5856197476387024,0.3325396180152893,44.68363952636719,-18.36224746704102,0.115234375,2
1596230374.619925,69,0,102706.810384875,2.724990134339926,1.962968518838145,0.6290381982828803,0.5525776147842407,-1.242805123329163,0.1778150945901871,-0.01221382617950439,-0.005796730518341064,0.06761002540588379,2,0.7378976121028548,-0.3317046041896827,-0.570284044428548,0.1423203120653682,0.7472058534622192,-0.5883673429489136,0.3090416491031647,44.39512634277344,-18.9755859375,-1.851715087890625,2
1596230374.666375,70,0,102706.840483875,2.708452538249395,1.948799793889751,0.6254224456603875,0.2315712869167328,-0.4306883811950684,-0.0002828123979270458,0.1211495399475098,0.1705114841461182,0.406466007232666,2,0.7317211241208084,-0.3379168600446661,-0.5766350707188657,0.1337465717077569,0.7534816861152649,-0.5854398012161255,0.2992072105407715,44.19673156738281,-19.20449066162109,-2.617401123046875,2
1596230374.680168,71,0,102706.870581875,2.700896396536804,1.937786765839576,0.6275389685958614,0.3103918433189392,-0.8249618411064148,0.3508625626564026,0.1478688716888428,-0.1270517110824585,-0.05976641178131104,2,0.7268632891384593,-0.3418957799398074,-0.5811509350117319,0.1305391902482785,0.7555729746818542,-0.5871543884277344,0.2904459238052368,44.06283569335938,-19.10672760009766,-3.390869140625,2
1596230374.726473,72,0,102706.900680875,2.678112299760918,1.918444144028205,0.6371712179690909,0.4049771726131439,-1.205356478691101,0.5569596886634827,-0.05313855409622192,-0.1656697392463684,0.01402842998504639,2,0.7154561764289141,-0.3536121396001093,-0.5895884427603706,0.1243632002549768,0.755696713924408,-0.5949240922927856,0.2738381624221802,43.83474731445312,-19.68540191650391,-3.85870361328125,2
1596230374.740374,73,0,102706.930779875,2.663356476913359,1.892578645013501,0.6453255804101431,0.2460458874702454,-1.112667202949524,0.1686519980430603,-0.1131556630134583,-0.1500282883644104,0.01994633674621582,2,0.7035831433036631,-0.3623542248651325,-0.599672708519093,0.1185863394587965,0.7578986883163452,-0.6014585494995117,0.2526596486568451,43.37355041503906,-20.48709106445312,-5.632843017578125,2
1596230374.789631,74,0,102706.960877875,2.647437250486641,1.866860900064207,0.6427441755227936,0.6456350088119507,-1.199500441551208,0.02226738259196281,-0.08594048023223877,-0.1325283646583557,-0.06357812881469727,2,0.6933924708456801,-0.3687497584771127,-0.609552651662022,0.1080553234269895,0.7656276822090149,-0.5993942618370056,0.2335390001535416,42.72883605957031,-20.98204803466797,-7.3775634765625,2
1596230374.800524,75,0,102706.990976875,2.626365802037748,1.839305902606009,0.6422080326000986,0.3777341246604919,-1.408380746841431,0.2451800256967545,-0.07246255874633789,-0.05752372741699219,-0.01018083095550537,2,0.6810948934874537,-0.377267058944991,-0.6200962024158618,0.09622836544260568,0.7720811367034912,-0.598965048789978,0.2124413698911667,42.50559997558594,-21.09524536132812,-8.38873291015625,2
1596230374.848138,76,0,102707.021075875,2.610013980768881,1.80815818179977,0.6458899460825447,0.4450140595436096,-1.249658584594727,0.1646826714277267,0.01474303007125854,0.1260793209075928,-0.02002918720245361,2,0.6675111511536121,-0.385117849854836,-0.6313581560086198,0.08660137346846383,0.7761737704277039,-0.601909339427948,0.1877737939357758,41.60627746582031,-21.70998382568359,-10.33224487304688,2
1596230374.860595,77,0,102707.051173875,2.593204140997508,1.780160662727085,0.6462751314399613,0.4368299841880798,-1.31574285030365,0.0754864513874054,-0.0585893988609314,0.08497864007949829,0.01771283149719238,2,0.6552609598565006,-0.3919120396891324,-0.641301668924981,0.07596150431809701,0.7808994650840759,-0.602216899394989,0.1659239381551743,41.25196838378906,-21.99138641357422,-11.29684448242188,2
1596230374.908673,78,0,102707.081272875,2.572231556805879,1.756510806805773,0.6445625276484508,0.6107550263404846,-1.098233699798584,0.06649472564458847,0.1630690097808838,0.1171154379844666,0.0458977222442627,2,0.6438238311984695,-0.39911343965699,-0.6497081411040476,0.06386397257948595,0.7856172323226929,-0.6008487939834595,0.1476013213396072,40.55606079101562,-22.29294586181641,-12.94146728515625,2
1596230374.920834,79,0,102707.111371875,2.550023700073973,1.730241918393318,0.6468417786108677,0.5624163746833801,-1.631407737731934,0.273290753364563,-0.08085119724273682,-0.02679145336151123,0.03038883209228516,2,0.6302876899453597,-0.4075368438848468,-0.6587338288365899,0.05216076149368767,0.7878687977790833,-0.6026691794395447,0.1266977041959763,40.18191528320312,-22.58139801025391,-13.64273071289062,2
1596230374.968856,80,0,102707.141469875,2.526005364485318,1.694319765684067,0.649616076085284,0.6236641407012939,-1.365781664848328,-0.01790846325457096,-0.1745873689651489,0.03441011905670166,0.1953939199447632,2,0.6128267050948347,-0.4165336797426155,-0.6704575927373868,0.03781198560687149,0.790248692035675,-0.6048807501792908,0.09811375290155411,39.13412475585938,-23.20136260986328,-15.66690063476562,2
1596230374.981076,81,0,102707.171568875,2.506328430986919,1.670250775063182,0.6434136910879495,0.599987804889679,-1.203468441963196,-0.2102615833282471,-0.1457270383834839,-0.04072219133377075,0.0623316764831543,2,0.6018926027090042,-0.4212411761369981,-0.6780209241461498,0.02384927173752599,0.7960989475250244,-0.5999300479888916,0.07943766564130783,38.7322998046875,-23.37863159179688,-16.44869995117188,2
1596230375.027936,82,0,102707.201666875,2.473537089243695,1.645777971013634,0.6331388672632228,1.160793662071228,-1.698395729064941,-0.3577596247196198,-0.1257503032684326,0.03730881214141846,0.07904303073883057,2,0.5887649815352247,-0.4284292421929342,-0.6854124881719966,0.003716794430544346,0.8039090037345886,-0.5916781425476074,0.06039163842797279,38.23358154296875,-23.36882019042969,-17.78842163085938,2
1596230375.041301,83,0,102707.231765875,2.431248533065643,1.611191809027776,0.6144434400998759,1.079417824745178,-2.28265380859375,-0.7357019782066345,0.05749857425689697,0.004700779914855957,-0.04928779602050781,2,0.5717203239319377,-0.4354708298214767,-0.6948890592052493,-0.02510316643348509,0.8164277672767639,-0.5765038728713989,0.03299794346094131,37.61143493652344,-23.44327545166016,-18.4833984375,2
1596230375.088174,84,0,102707.261864875,2.391626142151277,1.560755463919288,0.5949286658057623,1.246617913246155,-2.538856506347656,-0.3374426662921906,0.3898429274559021,8.594989776611328e-05,-0.2570306062698364,2,0.5496229425725619,-0.4401781771349815,-0.7077515034050398,-0.05696983390722574,0.8281466960906982,-0.5604496598243713,-0.008315586484968662,36.37464904785156,-23.42627716064453,-20.91082763671875,2
1596230375.101522,85,0,102707.291962875,2.336733051491669,1.505334177411377,0.5953568882075,1.753496885299683,-3.123672485351562,0.03697175160050392,0.1189229488372803,0.1298702955245972,-0.1879783272743225,2,0.5174727480665938,-0.4529256726612189,-0.7205511879704177,-0.08880466469981577,0.8261750340461731,-0.5608042478561401,-0.05416058003902435,35.15090942382812,-23.91490936279297,-22.11636352539062,2
1596230375.14757,86,0,102707.322061875,2.266754949530218,1.447259464804572,0.5942277333979632,2.052568197250366,-3.491727113723755,-0.4620166122913361,0.2496395707130432,0.1662147641181946,-0.007428109645843506,2,0.4805541440214322,-0.4669236010484189,-0.7312169175682772,-0.1279521133407281,0.8222663402557373,-0.5598690509796143,-0.102100133895874,32.4752197265625,-25.24413299560547,-24.92462158203125,2
1596230375.161818,87,0,102707.352160875,2.184262390458451,1.367043065879798,0.5922704827354651,2.503242969512939,-4.919325351715088,-0.210530161857605,0.717259407043457,0.1234169006347656,-0.09179776906967163,2,0.4319325150180375,-0.4790547223100335,-0.7431408396449077,-0.1779954368888052,0.8125125169754028,-0.5582461953163147,-0.1678817570209503,30.76905822753906,-25.984375,-25.94448852539062,2
1596230375.210211,88,0,102707.3822595,2.085888218430388,1.256269474989683,0.6203977388614602,3.057382345199585,-5.895076274871826,0.5306229591369629,0.8028935790061951,0.5204098224639893,0.148404598236084,2,0.359024468968768,-0.4952209780676637,-0.7559819588701021,-0.2331281555355074,0.7737319469451904,-0.5813588500022888,-0.251715213060379,25.06020355224609,-28.76171875,-29.26181030273438,2
1596230375.221983,89,0,102707.4123585,1.980149235939886,1.156224831200117,0.6657298270514568,3.246284008026123,-4.710046291351318,0.1068568676710129,0.1530169248580933,0.4795718789100647,0.5217503309249878,2,0.2816528361293679,-0.5121310973252184,-0.7597267057148301,-0.284971498315846,0.7198439240455627,-0.6176332831382751,-0.3167868256568909,18.01438140869141,-33.05429077148438,-30.36117553710938,2
1596230375.268901,90,0,102707.4424575,1.860716281877239,1.106059088901296,0.6987021507408147,3.206006526947021,-3.972320318222046,-0.7746284008026123,-0.2988132834434509,0.2490113973617554,0.3413975834846497,2,0.2216913501104021,-0.5284592999649267,-0.7485300036194609,-0.3335962099361515,0.6844692826271057,-0.6432244777679443,-0.3431674242019653,15.53363037109375,-35.10401153564453,-29.828369140625,2
1596230375.282056,91,0,102707.4725555,1.72352755723749,1.067367666059882,0.7209876218493254,3.669107437133789,-4.425422191619873,-0.8701552152633667,0.1505563855171204,0.3156891465187073,0.2657946348190308,2,0.1635589802085625,-0.5404241050816583,-0.7282774501800986,-0.3883324790024582,0.6579610705375671,-0.6601268649101257,-0.3623805046081543,11.84809112548828,-38.35167694091797,-27.69046020507812,2
1596230375.329263,92,0,102707.5026545,1.579226567974055,1.02816661764785,0.767975340774803,3.883832693099976,-4.763984203338623,0.06132345274090767,0.4615458250045776,0.4321795105934143,0.4147112369537354,2,0.09406261663640622,-0.5526552880973695,-0.7029823628108418,-0.4376528906541018,0.6159911155700684,-0.6946802735328674,-0.3714487254619598,9.680503845214844,-40.53069305419922,-26.00921630859375,2
1596230375.342373,93,0,102707.5327535,1.44544670241282,0.9664766897396833,0.8370866549539955,3.857821464538574,-5.683014869689941,0.2578423321247101,0.1278698444366455,0.2651500105857849,0.4561274647712708,2,0.01088310701233838,-0.5564522489625137,-0.6767735924571645,-0.4818918904575444,0.5510304570198059,-0.7426953911781311,-0.3804849088191986,4.822128295898438,-44.26054382324219,-21.67193603515625,2
1596230375.389886,94,0,102707.5628515,1.287257757815755,0.9049271286057813,0.9075618958039083,4.402783870697021,-6.527904510498047,-0.5777754187583923,-0.08626031875610352,0.1363174319267273,0.409945011138916,2,-0.07957109606544677,-0.5509137247408338,-0.6383966878395855,-0.5316127865885716,0.4841497242450714,-0.788004994392395,-0.3803250193595886,2.335762023925781,-45.90213012695312,-18.787353515625,2
1596230375.40251,95,0,102707.5929505,1.075312300538201,0.8890053412641578,0.9749242500669936,4.845306396484375,-5.502950191497803,-0.9422386288642883,0.118392139673233,0.3507059812545776,0.6211563348770142,2,-0.1686395637754508,-0.5428823041566797,-0.5814980682825686,-0.5819789574044019,0.4357649981975555,-0.8276593685150146,-0.3536790013313293,-0.5211715698242188,-48.83969116210938,-11.24563598632812,2
1596230375.449223,96,0,102707.6230485,0.8152907352724206,0.935432328260803,1.064542495232265,6.350292205810547,-7.318707942962646,0.199552521109581,-0.1405094265937805,0.6536844372749329,0.7596940398216248,2,-0.2618567679649348,-0.5362302659287812,-0.5149680989249789,-0.6153826285647623,0.3902778029441833,-0.8745671510696411,-0.2877762615680695,-0.8393783569335938,-49.82662963867188,-6.67047119140625,2
1596230375.462662,97,0,102707.6531475,0.3907172451880938,1.082996462709765,1.195916259732507,7.430000782012939,-7.708588600158691,0.2811921536922455,-0.3768225312232971,0.04781794548034668,0.5402500629425049,2,-0.3905494923379358,-0.5115313848801235,-0.4221236429684435,-0.6384498889225643,0.323453962802887,-0.9305515289306641,-0.1716134697198868,-1.2022705078125,-50.23681640625,5.983795166015625,2
1596230375.50798,98,0,102707.6832465,-0.01759617700360926,1.282002937025817,1.273061911341961,2.670772314071655,-4.578264713287354,1.344733476638794,-0.9975589513778687,-1.210288524627686,0.576014518737793,2,-0.4806298918405955,-0.4766778657524656,-0.3497715666811197,-0.6476364095456809,0.2812065482139587,-0.9560035467147827,-0.0835462361574173,-0.4677963256835938,-49.19351196289062,12.10540771484375,2
1596230375.52293,99,0,102707.7133445,-0.1408672678125218,1.34704968008761,1.303437372246419,-0.1868970394134521,1.191854238510132,-0.6803162097930908,-0.862150251865387,-1.248946070671082,-0.4104492664337158,2,-0.5078232609808715,-0.4613092653107402,-0.3336635247598813,-0.6465121664405149,0.2575999200344086,-0.9644719958305359,-0.05861859396100044,-0.1349334716796875,-47.57080841064453,16.8997802734375,2
1596230375.567375,100,0,102707.7434435,-0.1195660243990744,1.442864826322738,1.258396821770214,-0.5552401542663574,4.687241077423096,-1.550075173377991,-0.3854883313179016,0.443968653678894,1.150125622749329,2,-0.4729936760783326,-0.5066272310930651,-0.3517139557766941,-0.6292083110922528,0.3048311769962311,-0.9515988230705261,-0.03921166062355042,0.01741790771484375,-47.81473541259766,16.86532592773438,2
1596230375.583138,101,0,102707.7735425,-0.09279594600838474,1.530509895292636,1.220500753942106,0.2192966192960739,2.698520183563232,-0.8240469098091125,0.4819491505622864,0.7086647152900696,0.1990814208984375,2,-0.4391886518290569,-0.5479074268091635,-0.3691395111971129,-0.6088075806126156,0.3428966104984283,-0.9392713308334351,-0.01382155995815992,-0.03568267822265625,-48.07967376708984,16.28909301757812,2
1596230375.626663,102,0,102707.8036405,-0.1946504650946517,1.662351037793709,1.206779526419216,1.404796719551086,-0.3496512472629547,-0.1326254159212112,0.907617449760437,-1.359033226966858,-0.2268743515014648,2,-0.4397543956563776,-0.568235373737551,-0.3632665541471681,-0.5930952081984211,0.3545392155647278,-0.9344742894172668,0.03255073726177216,-0.209625244140625,-47.82837677001953,16.59027099609375,2
1596230375.643301,103,0,102707.8337395,-0.1856775039697242,1.621750819202739,1.216680342313347,-0.9972020983695984,-0.7500762343406677,0.6105445623397827,-0.2535979449748993,0.09836584329605103,0.4552252292633057,2,-0.4471399623753518,-0.5557846232715722,-0.3600909023060785,-0.6012518114673822,0.346310943365097,-0.9379534125328064,0.01766138710081577,0.1575927734375,-47.14663696289062,18.01779174804688,2
1596230375.68832,104,0,102707.8638385,-0.1811790774191058,1.628572302790813,1.222451386955933,0.7882066965103149,1.238765120506287,-0.3292613327503204,-0.2610612213611603,0.4739744663238525,-0.0744394063949585,2,-0.4461616239868506,-0.5574899259647134,-0.3647767862576184,-0.5975639171060869,0.3407729268074036,-0.9399389624595642,0.01971042528748512,-0.1010513305664062,-47.45201873779297,17.19140625,2
1596230375.703469,105,0,102707.8939365,-0.2156185064810303,1.69744926676138,1.199597141063725,0.1409307867288589,1.001408338546753,-1.036775469779968,0.1138508021831512,-0.09825229644775391,0.09637761116027832,2,-0.4375723000036527,-0.5757080062791369,-0.3624412736700354,-0.5879855113759198,0.3598273992538452,-0.9318930506706238,0.04581845179200172,-0.3644485473632812,-47.27442169189453,18.02236938476562,2
1596230375.745969,106,0,102707.9240355,-0.207720249065579,1.699964825399619,1.172411936042328,-0.1145663261413574,-0.344936728477478,-0.466029018163681,0.2972603440284729,-0.2197862267494202,-0.07334136962890625,2,-0.4280286000307624,-0.5846161375744523,-0.3563654283408096,-0.5899313491331837,0.3846975862979889,-0.9216889142990112,0.04996902123093605,0.915863037109375,-47.10822296142578,18.43017578125,2
1596230375.763678,107,0,102707.9541335,-0.2008578936243537,1.681586357258464,1.174701029986696,0.02905276790261269,-0.3424678146839142,0.4134646654129028,0.1284778416156769,0.2924332022666931,0.08313322067260742,2,-0.4298804749810457,-0.5801133592190479,-0.3552065636415053,-0.5937166440735977,0.3834531903266907,-0.922574520111084,0.04265746474266052,1.205253601074219,-46.93321990966797,18.23150634765625,2
1596230375.807222,108,0,102707.9842325,-0.222040328744809,1.694235426663379,1.183705811051434,0.4063137471675873,-0.1564436256885529,0.09068822115659714,-0.1639785766601562,-0.2117738723754883,0.1893361806869507,2,-0.4360398230068914,-0.5771559524011443,-0.3546198424948098,-0.5924566549343937,0.374623030424118,-0.926011323928833,0.04647944122552872,0.8546676635742188,-47.16710662841797,18.55374145507812,2
1596230375.823999,109,0,102708.0143315,-0.2173229914006749,1.685070963278265,1.178384005349995,-0.5453319549560547,-0.08268653601408005,-0.3821904063224792,-0.2905213832855225,-0.05940431356430054,0.1712223291397095,2,-0.4349615739075119,-0.5767245687411707,-0.3522740408306046,-0.5950629612152826,0.3799235224723816,-0.9239892363548279,0.04360559955239296,1.083206176757812,-47.01750183105469,18.68304443359375,2
1596230375.868395,110,0,102708.0444295,-0.1888052100369769,1.663002773356115,1.164967828887559,0.08289385586977005,0.233408585190773,-0.5462027788162231,-0.07371646165847778,0.2404105663299561,-0.102352499961853,2,-0.4271574469971173,-0.5794060389281739,-0.3516451786169845,-0.5984736559525284,0.3931027948856354,-0.9187756180763245,0.03634968400001526,1.881385803222656,-47.11385345458984,18.1319580078125,2
1596230375.884018,111,0,102708.0745285,-0.1987598248064914,1.671319453318127,1.148047566098551,0.07532721757888794,-0.4862305521965027,-0.4866001009941101,0.2099181413650513,-0.1285079121589661,-0.1298387050628662,2,-0.4241945922937047,-0.58364799855901,-0.3449104348378258,-0.6003755064486592,0.4081976413726807,-0.9119646549224854,0.04117207601666451,2.136177062988281,-47.06900024414062,18.14678955078125,2
1596230375.930061,112,0,102708.1046275,-0.1921587233321667,1.640850885168572,1.140265749299652,-0.1564359664916992,-0.7382933497428894,-0.06120963394641876,0.1318515539169312,0.02929979562759399,0.1835521459579468,2,-0.425428646832733,-0.5775960981740419,-0.3378976256522729,-0.6092769528073693,0.4163293242454529,-0.9087444543838501,0.02921357192099094,3.266921997070312,-46.903564453125,18.20269775390625,2
1596230375.944325,113,0,102708.1347255,-0.1768735566607818,1.613015400527246,1.139733902647264,-0.1815470159053802,-0.5826473832130432,-0.0529443770647049,-0.1616566777229309,-0.05944144725799561,0.1586513519287109,2,-0.4255832843563392,-0.5724478786440137,-0.3364821019196309,-0.6147861435115911,0.4174637198448181,-0.908522367477417,0.0176354106515646,3.523269653320312,-46.77189636230469,17.87713623046875,2
1596230375.987043,114,0,102708.1648245,-0.1517361884396204,1.570886393791261,1.133328164347152,-0.6706362962722778,-0.2966424524784088,-0.4460381865501404,-0.1528179943561554,-0.05887770652770996,0.2332360744476318,2,-0.4237007607805948,-0.5661243181734202,-0.333298451164485,-0.6236128228572833,0.4236471652984619,-0.9058271646499634,3.815662785200402e-05,4.267860412597656,-47.05708312988281,17.25466918945312,2
1596230376.004476,115,0,102708.1949225,-0.09687855390789217,1.525950023134036,1.116116887390203,-0.6693408489227295,0.2118834853172302,-0.5037360787391663,0.1252874135971069,0.2050800323486328,-0.1034577488899231,2,-0.4106792354689394,-0.5670081126529827,-0.3358349824377111,-0.6301262548910482,0.4387324750423431,-0.8984018564224243,-0.01968873105943203,4.745742797851562,-47.20411682128906,16.5155029296875,2
1596230376.047306,116,0,102708.2250215,-0.07100797232679903,1.501393740743657,1.10844197633165,-0.2636572420597076,-0.3319920599460602,-0.009837687015533447,0.1975353360176086,-0.1075978875160217,0.00854027271270752,2,-0.4051707450277265,-0.5660126912678818,-0.3367054529217403,-0.634110054621403,0.4449822902679443,-0.8950048089027405,-0.03093260154128075,5.228813171386719,-47.45793151855469,15.749267578125,2
1596230376.064777,117,0,102708.2551205,-0.04157393758983267,1.454670319314028,1.107461404528976,-0.6207462549209595,-0.891292929649353,-0.03418447077274323,-0.09582489728927612,-0.09801656007766724,-0.007342278957366943,2,-0.4044634964270918,-0.5572407618139876,-0.3363562896044874,-0.6424610867258055,0.4439233243465424,-0.8945670127868652,-0.05178402736783028,5.384193420410156,-47.44819641113281,15.35791015625,2
1596230376.107587,118,0,102708.2852185,-0.006277414914844744,1.406353679799009,1.101642889251973,-0.468713253736496,-0.1502983421087265,-0.1924988925457001,-0.1104741096496582,0.4072667956352234,0.06971091032028198,2,-0.4009630377363979,-0.54974644290414,-0.3364038199398599,-0.6510297823978877,0.4460316300392151,-0.8919513821601868,-0.07401498407125473,5.555595397949219,-47.66880798339844,14.18414306640625,2
1596230376.125119,119,0,102708.3153175,0.01618767035891458,1.386469557626957,1.091214646278817,-0.4155581891536713,-0.06983456760644913,-0.3843932747840881,0.04136335849761963,-0.2197385430335999,0.1074929237365723,2,-0.3947234710062499,-0.5494623607804273,-0.3369268218782149,-0.6548011968419466,0.453591376543045,-0.8871880173683167,-0.08456899225711823,5.847579956054688,-47.82302856445312,13.75445556640625,2
1596230376.166839,120,0,102708.3454165,0.06666815751958281,1.33302140031444,1.076644966522125,-1.220332741737366,-0.2540187537670135,-0.1372237205505371,0.11899733543396,-0.007699668407440186,0.08595013618469238,2,-0.3850564507396753,-0.5439437829909092,-0.3392874531856317,-0.663883076170168,0.4609405100345612,-0.8803715109825134,-0.1117133796215057,6.528144836425781,-48.00823974609375,12.36083984375,2
1596230376.18515,121,0,102708.375514375,0.1203978483335502,1.28784929544984,1.071586708185879,-0.4605358242988586,0.1220169812440872,0.2208526283502579,0.1029860377311707,0.2937057018280029,-0.2670688629150391,2,-0.3764928582235698,-0.5398383015538526,-0.347304059252169,-0.6679876375281851,0.4596956372261047,-0.8779612183570862,-0.1336554735898972,6.781829833984375,-48.40892028808594,10.90292358398438,2
1596230376.226768,122,0,102708.405613375,0.1424022249001021,1.261020375671933,1.075306203853518,-0.228556364774704,-0.665340781211853,0.08765412867069244,-0.1305197775363922,-0.2141849398612976,-0.239987850189209,2,-0.3765820629097601,-0.5345228384699332,-0.3505151623614126,-0.6705298936911552,0.4528316259384155,-0.8797357678413391,-0.1449425667524338,6.510360717773438,-48.55126953125,10.58514404296875,2
1596230376.245543,123,0,102708.435711375,0.1589378853998581,1.228122876211186,1.068054997761728,-0.4005937874317169,-0.281305193901062,-0.3014855086803436,-0.03218254446983337,0.1308844685554504,0.05412948131561279,2,-0.3753312654081343,-0.5274254651326498,-0.3482072667623636,-0.6780120530346633,0.4538154900074005,-0.8762649893760681,-0.1618976444005966,6.612884521484375,-48.57875823974609,9.870574951171875,2
1596230376.288645,124,0,102708.465810375,0.1737348880093637,1.213365653473711,1.058774097587022,-0.2598925232887268,-0.09788400679826736,-0.02587770111858845,0.09666544198989868,0.008332669734954834,-0.03008055686950684,2,-0.3706249610012485,-0.5262410822540998,-0.3483595442168673,-0.6814345545392181,0.4589762389659882,-0.8717555403709412,-0.17141492664814,7.138290405273438,-48.59507751464844,9.506500244140625,2
1596230376.305444,125,0,102708.495909375,0.1878783137514723,1.186478845586937,1.059212317778181,-0.09323151409626007,-0.8608701229095459,0.09211625158786774,0.0359916090965271,0.02257281541824341,-0.3021289706230164,2,-0.3717707135691741,-0.5196270093497829,-0.3483023053100576,-0.6859006731617545,0.4538478255271912,-0.8719701170921326,-0.1835486143827438,6.958595275878906,-48.82893371582031,8.84515380859375,2
1596230376.35055,126,0,102708.526007375,0.1863682677690426,1.162720410691577,1.058352380068657,0.001365138217806816,-0.6132025122642517,-0.1187550723552704,0.08299562335014343,0.11252361536026,0.07400810718536377,2,-0.3759480972510901,-0.5112485157436469,-0.343152913962281,-0.6924838710286161,0.4500473439693451,-0.8715488314628601,-0.1945759654045105,7.319770812988281,-48.76931762695312,8.486846923828125,2
1596230376.365627,127,0,102708.556106375,0.1923645676659429,1.140542585913547,1.055268250381912,-0.1657047271728516,-0.6488573551177979,0.04027275741100311,-0.1107936203479767,-0.1207791566848755,0.07097482681274414,2,-0.3770625706702748,-0.5049846348327812,-0.3404016487069035,-0.6978116383362227,0.4480628669261932,-0.8700324892997742,-0.2056286782026291,7.689682006835938,-48.67198181152344,8.21209716796875,2
1596230376.407585,128,0,102708.586204375,0.2019776383037542,1.114412298520857,1.054991236765448,-0.1997847408056259,-0.4047620594501495,0.0001785848289728165,-0.1692089438438416,0.01122361421585083,0.1059180498123169,2,-0.3789853013621261,-0.4976791319392242,-0.3387710680777129,-0.7027941734248486,0.4427534639835358,-0.8698959350585938,-0.2173712402582169,7.67486572265625,-48.92496490478516,7.932952880859375,2
1596230376.425861,129,0,102708.616303375,0.2095969956842713,1.10296854605002,1.049241544644554,-0.130189836025238,0.0554581917822361,-0.200191006064415,-0.02444753050804138,0.07860136032104492,-0.09068846702575684,2,-0.3768490080139506,-0.4956279442964346,-0.3381158719694146,-0.705702058758729,0.4446940720081329,-0.8670455813407898,-0.2246755361557007,7.926918029785156,-48.83358764648438,7.55511474609375,2
1596230376.466563,130,0,102708.646402375,0.2122693975566579,1.100641275248209,1.042942980306386,-0.1151737123727798,0.0108671523630619,-0.07406613230705261,-0.07730403542518616,-0.04845273494720459,-0.0008175969123840332,2,-0.3741812072801554,-0.4958817615300394,-0.3373438551737317,-0.7073109846992339,0.4490297734737396,-0.8638902902603149,-0.2281794100999832,8.162971496582031,-48.82273101806641,7.510406494140625,2
1596230376.486014,131,0,102708.676500375,0.2117133006472661,1.093456853367768,1.037232519749536,-0.1270031630992889,-0.3673823475837708,-0.3813111782073975,0.01251044869422913,-0.009451150894165039,-0.1326658129692078,2,-0.3733450934201454,-0.4937432451516541,-0.3346474901037931,-0.710522390375862,0.4517532587051392,-0.8610000014305115,-0.2336620986461639,8.207771301269531,-48.81043243408203,7.338592529296875,2
1596230376.528593,132,0,102708.706599375,0.2113029238424693,1.090041080372195,1.025033414978786,-0.1658580899238586,0.03149142488837242,-0.1039473861455917,0.1407119631767273,0.08812260627746582,0.0340806245803833,2,-0.3693402093032297,-0.4935241800634579,-0.3313988499637862,-0.7142802624521832,0.4602313339710236,-0.854731559753418,-0.2400433868169785,8.545684814453125,-48.67153930664062,6.985992431640625,2
1596230376.546266,133,0,102708.736697375,0.2216966178030597,1.079670874259459,1.032174957217596,0.1179240420460701,-0.1754332035779953,0.5855921506881714,0.07966676354408264,0.03741419315338135,-0.03900045156478882,2,-0.3712533347965861,-0.4911332924412982,-0.3346215317673139,-0.7134334842028796,0.4523231387138367,-0.8584166765213013,-0.2419181019067764,8.724235534667969,-48.96852874755859,6.789642333984375,2
1596230376.587877,134,0,102708.766796375,0.2291702185607301,1.059439961647664,1.045722862413088,-0.004943232983350754,-0.726309597492218,0.1779760718345642,0.06815659999847412,-0.04030787944793701,0.005402088165283203,2,-0.3780437375936279,-0.4841802704480923,-0.3361512338833336,-0.7139008977558866,0.4371537268161774,-0.8652871251106262,-0.2453047931194305,8.50665283203125,-48.98314666748047,6.9119873046875,2
1596230376.60644,135,0,102708.796895375,0.2281427159658768,1.043618462046983,1.043101935248523,0.06982633471488953,-0.6449350714683533,-0.02746797725558281,-0.02990669012069702,0.08143472671508789,-0.07381963729858398,2,-0.3799215316418465,-0.4785336222764197,-0.3322833305474772,-0.7185073773298924,0.4351767003536224,-0.8639703392982483,-0.253330409526825,8.224761962890625,-48.99057769775391,6.720672607421875,2
1596230376.646417,136,0,102708.826993375,0.2273481983475299,1.028856946100571,1.052188124534005,0.1557912081480026,-0.3976743817329407,0.3648394048213959,-0.1059186458587646,-0.03232616186141968,-0.007517397403717041,2,-0.3860811202117219,-0.47234313853648,-0.3308820853845665,-0.7199654438986163,0.4246468245983124,-0.8685098886489868,-0.2556666433811188,8.126670837402344,-49.04914093017578,6.87518310546875,2
1596230376.666663,137,0,102708.857092375,0.2323518199465757,1.017888155464953,1.055996276295894,-0.1250567138195038,-0.02038739621639252,-0.08986297249794006,-0.1259053647518158,-0.06031131744384766,0.0805547833442688,2,-0.3881984695330706,-0.4690594819740361,-0.331265795316679,-0.7207968426264504,0.4189994335174561,-0.8703911900520325,-0.2585703134536743,7.82366943359375,-49.17649078369141,6.649200439453125,2
1596230376.708357,138,0,102708.887190375,0.2315992301416998,1.022337126281834,1.049741140456969,-0.04508693516254425,0.1478544324636459,-0.1932164579629898,-0.01720491051673889,0.0676838755607605,0.02246773242950439,2,-0.3852062257337116,-0.4710070288478275,-0.3307020976977305,-0.721390690817395,0.4247831702232361,-0.8672943711280823,-0.2595370709896088,7.979339599609375,-49.08318328857422,6.5135498046875,2
1596230376.726976,139,0,102708.917289375,0.2300946939122864,1.024848159750671,1.045917965114737,-0.05273820087313652,-0.06545886397361755,-0.03550171107053757,0.04275855422019958,-0.01481819152832031,-0.02753007411956787,2,-0.3836587445758695,-0.4719229626841028,-0.3299326880480755,-0.7219687893226691,0.4282641708850861,-0.8653848767280579,-0.2601893842220306,8.124351501464844,-48.89745330810547,6.62176513671875,2
1596230376.770979,140,0,102708.947388375,0.2327310259350871,1.020530081353956,1.046296016154301,-0.007040007971227169,-0.07153788208961487,0.08405333012342453,0.01195758581161499,0.03340798616409302,-0.01270854473114014,2,-0.3838971058020516,-0.4708401013537715,-0.3301261016756311,-0.722460604232427,0.4268579483032227,-0.8655743002891541,-0.2618652284145355,8.140823364257812,-48.99464416503906,6.477935791015625,2
1596230376.787017,141,0,102708.977486375,0.2370239936410723,1.016684614208128,1.049805092549822,-0.001577869988977909,0.03963084518909454,0.1486282050609589,-0.02361255884170532,-0.003879070281982422,-0.06495988368988037,2,-0.3848908239342314,-0.4700070556028247,-0.3315828727343937,-0.7218068278820261,0.4232621788978577,-0.8673262000083923,-0.2619048357009888,8.163459777832031,-48.98359680175781,6.34454345703125,2
1596230376.827097,142,0,102709.007585375,0.2407092682732701,1.01612915703907,1.052524601051584,0.0154973603785038,0.1325345933437347,0.07185990363359451,0.02396398782730103,0.04215174913406372,-0.008959412574768066,2,-0.3851766385628226,-0.4703090693546492,-0.3333022151331385,-0.7206648372915272,0.4211099743843079,-0.8686766028404236,-0.2608966827392578,7.795257568359375,-49.01469421386719,6.433837890625,2
1596230376.847282,143,0,102709.037683375,0.2404723678813424,1.016674268098251,1.05532730398172,0.07204458117485046,-0.1347423791885376,0.1567009538412094,0.02393645048141479,0.008124411106109619,-0.02137088775634766,2,-0.3862330926580933,-0.4702461920951513,-0.333833213364423,-0.7198943232898625,0.4191802740097046,-0.8700616359710693,-0.2593850195407867,7.815872192382812,-49.11671447753906,6.487884521484375,2
1596230376.89058,144,0,102709.067782375,0.2467406805890939,1.008571160503257,1.061623557914139,-0.01388012897223234,0.02373519353568554,0.2097041755914688,0.02314245700836182,-0.02214890718460083,0.05304253101348877,2,-0.3885714686471945,-0.4680686832010257,-0.3356579119640261,-0.7192063439750742,0.4124217629432678,-0.8731480240821838,-0.2598478496074677,7.634490966796875,-48.98411560058594,6.474761962890625,2
1596230376.90784,145,0,102709.097881375,0.2487021478208966,1.008123055797206,1.064298280111374,0.123245507478714,0.06146747618913651,-0.03522072732448578,-0.06976723670959473,0.04205107688903809,-0.01402837038040161,2,-0.389229910689758,-0.4680889221097413,-0.3367552058854686,-0.7183234747951728,0.4103281199932098,-0.8744487166404724,-0.2587856650352478,7.223152160644531,-49.09097290039062,6.533905029296875,2
1596230376.946645,146,0,102709.127979375,0.240098152400902,1.018486550788157,1.06423314628272,0.05020096153020859,0.111274316906929,-0.02846132405102253,0.03013360500335693,0.003337740898132324,0.04985404014587402,2,-0.3894805331643335,-0.4701385585586295,-0.3356728374636175,-0.7173550301324481,0.413036435842514,-0.8744171261787415,-0.2545492947101593,7.251441955566406,-49.09991455078125,6.772918701171875,2
1596230376.967718,147,0,102709.158078375,0.2403900848779338,1.019309468141661,1.065092061013736,0.003198472782969475,-0.0790942907333374,0.03877319768071175,0.03568154573440552,0.006979227066040039,-0.05138367414474487,2,-0.3896071262648519,-0.4704236151680813,-0.3360940629381195,-0.7169021335648793,0.4126060903072357,-0.8748335242271423,-0.2538158297538757,7.26104736328125,-49.06212615966797,6.680084228515625,2
1596230377.005481,148,0,102709.188176375,0.2422839382196082,1.013552003930373,1.06373983697544,-0.07454006373882294,-0.1024904251098633,-0.05034063011407852,-0.0009108781814575195,0.02995014190673828,-0.03377395868301392,2,-0.3896036092046901,-0.468831325670392,-0.3354067246918422,-0.7182676282449301,0.4121413826942444,-0.8741776943206787,-0.2568124234676361,7.223609924316406,-49.02902984619141,6.698272705078125,2
