loggingTime,loggingSample,identifierForVendor,motionTimestamp_sinceReboot,motionYaw,motionRoll,motionPitch,motionRotationRateX,motionRotationRateY,motionRotationRateZ,motionUserAccelerationX,motionUserAccelerationY,motionUserAccelerationZ,motionAttitudeReferenceFrame,motionQuaternionX,motionQuaternionY,motionQuaternionZ,motionQuaternionW,motionGravityX,motionGravityY,motionGravityZ,motionMagneticFieldX,motionMagneticFieldY,motionMagneticFieldZ,motionMagneticFieldCalibrationAccuracy
1596230399.277592,1,0,102731.4608220417,1.075665254195317,0.5840365957933701,1.078857264531226,-0.07909028977155685,0.05605997517704964,0.01719000749289989,-0.0312042236328125,0.002344191074371338,-0.002945125102996826,2,-0.2959190137067775,-0.4641231818149099,-0.5479210314830446,-0.629923906904173,0.2604440748691559,-0.8814186453819275,-0.3940432071685791,-7.237297058105469,-49.7142333984375,-6.007171630859375,2
1596230399.300495,2,0,102731.4909190417,1.079255020440724,0.5822635010895021,1.079448180278399,0.01752017810940742,0.04519562423229218,0.07719998061656952,0.001914471387863159,0.02742296457290649,0.00103294849395752,2,-0.2958028213754691,-0.4641832335543184,-0.5487766992832803,-0.6291888918691662,0.2594584822654724,-0.8816975951194763,-0.3940692245960236,-7.233253479003906,-49.73867797851562,-6.088470458984375,2
1596230399.330749,3,0,102731.5210170417,1.07913088211688,0.582457645680624,1.080555900418698,0.04773666709661484,0.004576380364596844,-0.01643725857138634,-0.009611815214157104,0.007169663906097412,0.004702091217041016,2,-0.2962107810185852,-0.464389544160254,-0.5487432139212685,-0.6288739035828357,0.2589976191520691,-0.882219672203064,-0.3932030498981476,-7.241195678710938,-49.53782653808594,-6.039703369140625,2
1596230399.360631,4,0,102731.5511150417,1.079355047683143,0.5821314147736583,1.081629162881818,-0.004141491837799549,-0.04737114161252975,0.05232646688818932,-0.006680488586425781,-0.006524384021759033,-0.004192948341369629,2,-0.2966671021422702,-0.4644786344967143,-0.548742696353459,-0.6285934428017667,0.2583486437797546,-0.8827245235443115,-0.3924964666366577,-7.2049560546875,-49.45050811767578,-6.02923583984375,2
1596230399.390612,5,0,102731.5812130417,1.081160663905034,0.5787398609059327,1.082721075314933,0.02808736078441143,-0.08742239326238632,0.001257758121937513,0.03455722332000732,0.02222412824630737,-0.003499925136566162,2,-0.2976045661689606,-0.4638425659570828,-0.5487826370805968,-0.6285850581978331,0.256488561630249,-0.8832370638847351,-0.3925631940364838,-7.1861572265625,-49.64667510986328,-5.980560302734375,2
1596230399.420839,6,0,102731.6113110417,1.079538127583043,0.5750042370606067,1.08401626329764,0.08121655881404877,-0.240673691034317,0.03582627698779106,0.03322792053222656,0.002010345458984375,-0.03640252351760864,2,-0.2995094383692455,-0.4626174996292877,-0.5476853865533897,-0.6295393916364291,0.254397988319397,-0.8838436603546143,-0.3925582766532898,-7.239273071289062,-49.47396087646484,-5.8660888671875,2
1596230399.450796,7,0,102731.6414090417,1.079149143084349,0.5645400362995989,1.087177656205869,0.1088760122656822,-0.5013350248336792,0.03474755212664604,0.007016181945800781,0.003382980823516846,-0.08958768844604492,2,-0.3036922912127248,-0.4597313014788885,-0.5459084610849891,-0.6311909928209445,0.2487801313400269,-0.8853181004524231,-0.3928362429141998,-7.414985656738281,-49.42957305908203,-5.639678955078125,2
1596230399.480993,8,0,102731.6715060417,1.075427407045361,0.5521597716649745,1.091429201631054,0.1677882969379425,-0.4610786139965057,0.0633992999792099,0.06230838596820831,0.02190423011779785,-0.05152535438537598,2,-0.3095695902671367,-0.4558814120275219,-0.5427203562774485,-0.6338716094420165,0.2419211268424988,-0.8872870206832886,-0.3926776051521301,-7.637123107910156,-49.46001434326172,-5.533905029296875,2
1596230399.511035,9,0,102731.7016040417,1.073233418475966,0.5446918076016001,1.095889521858134,0.1403061151504517,-0.07706856727600098,-0.06118465214967728,-0.1855611354112625,0.01155960559844971,-0.01104080677032471,2,-0.313827601816708,-0.4538390280419652,-0.5407324134809695,-0.6349415908762185,0.2369290292263031,-0.8893353343009949,-0.391084760427475,-7.496360778808594,-49.39375305175781,-5.14056396484375,2
1596230399.541245,10,0,102731.7317020417,1.062291199095603,0.5737082267889565,1.098423879466114,0.2515362799167633,1.097407698631287,-0.04753453284502029,-0.2155259847640991,0.1179866790771484,0.009536981582641602,2,-0.3094671978439044,-0.4616861951635277,-0.5417256436242128,-0.6305625143988082,0.2469513863325119,-0.8904913067817688,-0.3821518123149872,-7.613502502441406,-49.73686981201172,-4.9791259765625,2
1596230399.571196,11,0,102731.7618000417,1.046765202653786,0.6218981654317511,1.107650726305361,0.4065709114074707,0.8870904445648193,-0.09132552891969681,-0.05187699198722839,-0.05745327472686768,-0.09354197978973389,2,-0.3036275669012742,-0.4756586531377269,-0.5440915979094605,-0.6209051336741969,0.2602753937244415,-0.8946515917778015,-0.3631182909011841,-7.4835205078125,-49.566162109375,-4.815582275390625,2
1596230399.601443,12,0,102731.7918980417,1.022267232107132,0.6596779978119662,1.112306469500905,0.2816490828990936,0.2648134529590607,-0.1801864504814148,0.1893340945243835,0.08223390579223633,-0.05194896459579468,2,-0.3010699027644348,-0.4842419713422082,-0.5421857786908476,-0.6171717539723139,0.2712492942810059,-0.8967218995094299,-0.3497332632541656,-7.072593688964844,-49.89417266845703,-4.329833984375,2
1596230399.631388,13,0,102731.8219960417,1.006875013505163,0.6697982867953399,1.122885395158807,0.5858785510063171,-0.3149093985557556,0.2037782371044159,0.0815923810005188,-0.0156562328338623,-0.1395466923713684,2,-0.306219326707175,-0.4862843659291342,-0.5389686355447536,-0.615849057002987,0.2688703238964081,-0.9013538360595703,-0.3395144641399384,-6.834030151367188,-50.09426116943359,-3.852020263671875,2
1596230399.66166,14,0,102731.8520930417,0.9891628656982231,0.678711358729296,1.138770220430584,0.5379095673561096,-0.1009556427598,-0.02868025563657284,-0.2106584310531616,0.09349638223648071,-0.05735111236572266,2,-0.3143715919309572,-0.4880693372448492,-0.5349323765242722,-0.6138453488020787,0.2628630995750427,-0.908119261264801,-0.325917661190033,-7.134666442871094,-50.0845947265625,-2.6484375,2
1596230399.691606,15,0,102731.8821910417,0.9448600702864695,0.7225850177586255,1.150309313497445,0.8942250609397888,0.380305141210556,-0.3293705880641937,-0.1529680788516998,0.06671637296676636,-0.1060912609100342,2,-0.3181368677943051,-0.4956732523444426,-0.5284072805096338,-0.6114593687069937,0.2699564397335052,-0.9128902554512024,-0.3061939179897308,-7.086135864257812,-50.18091583251953,-2.121612548828125,2
1596230399.721766,16,0,102731.9122890417,0.8790223662926732,0.8030395582943505,1.168686476531433,1.048339128494263,1.057397246360779,-0.05747560784220695,-0.164345383644104,0.09329783916473389,0.02217191457748413,2,-0.3208186701575698,-0.5110488594506917,-0.5217759121631504,-0.6030374734652679,0.2815723121166229,-0.9202373027801514,-0.2718088924884796,-6.3846435546875,-50.17365264892578,-0.28106689453125,2
1596230399.751771,17,0,102731.9423870417,0.8244963495234408,0.9048730984023043,1.183276474538348,0.5834593772888184,2.162935733795166,-0.2339302450418472,-0.2478435933589935,-0.08974987268447876,0.5879419445991516,2,-0.3141981417780559,-0.5334333541828543,-0.5224927509236853,-0.5862845246393253,0.2971549332141876,-0.9258491396903992,-0.2334567755460739,-6.414543151855469,-50.26286315917969,0.517303466796875,2
1596230399.782319,18,0,102731.9724850417,0.8045006629284188,0.9845061284453857,1.177013017968696,-0.5115405321121216,1.767771124839783,-0.3153428435325623,-0.2604867219924927,-0.1670426726341248,0.1324437856674194,2,-0.2962657347229974,-0.5532496293733271,-0.5283838805750674,-0.5717969746454641,0.3196088373661041,-0.9234640598297119,-0.2122829258441925,-5.8468017578125,-49.97440338134766,0.92755126953125,2
1596230399.811955,19,0,102732.0025830417,0.7984437687890098,1.048538022717182,1.16946460432371,0.7486078143119812,2.149540185928345,-0.1803158521652222,0.3309204876422882,0.1198816895484924,-0.4103546738624573,2,-0.2780152801738124,-0.570327323071866,-0.5351703889532996,-0.5576977449285175,0.3385694324970245,-0.9205415844917297,-0.1948684900999069,-5.686454772949219,-50.02165222167969,0.377593994140625,2
1596230399.842217,20,0,102732.0326800417,0.7510506901724976,1.149907134626921,1.177139214292079,0.4264139831066132,1.252423167228699,0.1967834234237671,0.6978564262390137,0.2594131827354431,-0.2490760684013367,2,-0.2675590311500833,-0.5916539967126021,-0.5368642321604827,-0.5386414122025314,0.3500929474830627,-0.9235124588012695,-0.1567154228687286,-5.617088317871094,-50.42568206787109,1.07421875,2
1596230399.87209,21,0,102732.0627780417,0.7060626364383711,1.195155253112451,1.198729709935157,1.248581051826477,-1.10288941860199,0.717664897441864,0.4251592457294464,-0.1783492565155029,-0.4038259983062744,2,-0.2769741961237612,-0.5971593215030991,-0.5338275597195659,-0.5307675444871117,0.3381926417350769,-0.9315780401229858,-0.1333720833063126,-5.829513549804688,-50.40303802490234,1.39666748046875,2
1596230399.902427,22,0,102732.0928760417,0.6528319891262944,1.199387405091321,1.232662842537904,0.5930113196372986,-1.365301251411438,0.6823712587356567,-0.3035239279270172,0.07098996639251709,0.2926281690597534,2,-0.304311397979954,-0.5892350959016899,-0.525012583421549,-0.5334400947903837,0.3091086149215698,-0.9433754682540894,-0.1203931495547295,-6.903465270996094,-49.98031616210938,3.657745361328125,2
1596230399.932319,23,0,102732.1229740417,0.5880104705780798,1.242850897461777,1.246298353678881,1.020854234695435,0.1206168681383133,-0.3070008456707001,-0.6282800436019897,0.04550224542617798,0.2518929243087769,2,-0.3171292923518035,-0.5899840762053469,-0.5165145075712677,-0.5334421126520841,0.3018409311771393,-0.9478108882904053,-0.102695606648922,-7.235862731933594,-49.71382904052734,4.30645751953125,2
1596230399.962574,24,0,102732.1530720417,0.509976278295489,1.331844069434699,1.236902954638862,0.4871378839015961,0.7064547538757324,-0.6790301203727722,-0.3585320115089417,-0.0216936469078064,0.3153348565101624,2,-0.3141992273492711,-0.6020757815847453,-0.5082001820772643,-0.5296377008279636,0.3184118568897247,-0.9447735548019409,-0.0775671973824501,-6.698677062988281,-49.54521179199219,6.1102294921875,2
1596230399.992519,25,0,102732.1831690417,0.4597394206600422,1.405444019525764,1.219303296614189,0.3930081427097321,0.8760174512863159,-0.6308441758155823,0.2459333837032318,0.03407943248748779,0.08201181888580322,2,-0.3047060325786473,-0.615482233014665,-0.5028706869939464,-0.5248398921774813,0.3396037817001343,-0.9388597011566162,-0.05667170882225037,-5.884445190429688,-49.65044403076172,6.580108642578125,2
1596230400.022853,26,0,102732.2132670417,0.4249612510772861,1.450091099132244,1.211845065751638,0.5131155252456665,-0.3431472480297089,0.1678937822580338,0.4643371105194092,-0.05708086490631104,-0.22296142578125,2,-0.3017264578801768,-0.6227448616500239,-0.4989366289858331,-0.5217396427208734,0.3487366139888763,-0.936265766620636,-0.04229996353387833,-5.635520935058594,-49.55051422119141,7.108306884765625,2
1596230400.052808,27,0,102732.2433650417,0.3794999390517724,1.476645575975868,1.228854949570176,0.5075769424438477,-0.4924817681312561,0.6256183385848999,0.05540397763252258,0.01216262578964233,0.09599483013153076,2,-0.3149909043625453,-0.6204989193188349,-0.4950267317178291,-0.5202981362720853,0.3338310122489929,-0.9421054720878601,-0.03152364119887352,-5.924491882324219,-49.33479309082031,8.34375,2
1596230400.082997,28,0,102732.2734630417,0.353976463773974,1.490865985432166,1.241116288778371,0.1957554072141647,-0.0376410223543644,0.02059260569512844,-0.3146368265151978,0.03046411275863647,0.1757990717887878,2,-0.3234427459874131,-0.6184337016995098,-0.4935083034977567,-0.5190124787352541,0.3227062523365021,-0.9461459517478943,-0.02584909275174141,-6.380142211914062,-49.26128387451172,8.716033935546875,2
1596230400.112942,29,0,102732.3035610417,0.3377846218865694,1.512410086547633,1.233689716994035,0.2005051523447037,0.2087434530258179,-0.3431136906147003,-0.1035681962966919,0.04594498872756958,-0.1077703237533569,2,-0.3207317076395324,-0.6224795650877342,-0.4910169768851561,-0.5182206028802523,0.3301940560340881,-0.9437156319618225,-0.01930072531104088,-6.28253173828125,-49.55348205566406,8.9312744140625,2
1596230400.143212,30,0,102732.3336580417,0.3083882556477291,1.543413906765544,1.228344505118313,0.372120201587677,-0.09747827798128128,-0.04366431012749672,0.07255098223686218,-0.05160939693450928,-0.04076004028320312,2,-0.3206032166487861,-0.6265913200088118,-0.4870684910546177,-0.5170696785147366,0.3356713056564331,-0.9419341683387756,-0.009193790145218372,-5.862380981445312,-49.20829010009766,9.0860595703125,2
1596230400.173134,31,0,102732.3637560417,0.2825912131470176,1.563981813587194,1.22939282393164,0.1348244696855545,-0.09783397614955902,0.0611976757645607,-0.06331679224967957,0.04872298240661621,0.1823661327362061,2,-0.3240319589818754,-0.6275846695040933,-0.4839819029976353,-0.5166256483455545,0.3348014652729034,-0.9422857165336609,-0.002281544264405966,-5.893333435058594,-49.4434814453125,9.58251953125,2
1596230400.203712,32,0,102732.393854375,0.277383545944452,1.575324880143029,1.22744059675741,0.02996163442730904,0.522716760635376,-0.2219537645578384,-0.03829902410507202,0.01316136121749878,0.1142996549606323,2,-0.3223099869974474,-0.6299829635408735,-0.4839692376564176,-0.5147924839773976,0.3366447389125824,-0.9416302442550659,0.0015245241811499,-5.860488891601562,-49.27291107177734,9.96514892578125,2
1596230400.233308,33,0,102732.423952375,0.2828110819115516,1.581350048981719,1.221122737464846,-0.06149902939796448,0.1316299736499786,-0.1337958574295044,0.005452007055282593,-0.1099551916122437,0.02084159851074219,2,-0.3171534424677844,-0.6334204496340058,-0.4846884423221882,-0.513097766868834,0.342572033405304,-0.9394845962524414,0.003615544177591801,-5.702255249023438,-49.33896636962891,9.826751708984375,2
1596230400.263563,34,0,102732.454050375,0.2919754998460955,1.578203451851675,1.21903814366082,-0.1478038281202316,0.2923205494880676,-0.04774411767721176,0.03547066450119019,0.08717972040176392,0.1046067476272583,2,-0.3143564474099156,-0.634394254969859,-0.4860007499390651,-0.5123741208869702,0.34453946352005,-0.9387683868408203,0.002552093472331762,-5.66204833984375,-49.23780822753906,9.671173095703125,2
1596230400.293525,35,0,102732.484148375,0.3098476927506678,1.580026329855979,1.216862817153868,-0.2094470262527466,0.6348854303359985,-0.03211620077490807,0.1669212281703949,-0.0007705092430114746,0.0371168851852417,2,-0.3075391090616302,-0.6379805541180532,-0.490282517937543,-0.5079601636668368,0.3465753197669983,-0.9380166530609131,0.003198981983587146,-5.726966857910156,-49.32279968261719,9.134796142578125,2
1596230400.323789,36,0,102732.514245375,0.3272076451374367,1.568758750832009,1.220744854656459,-0.1774017363786697,-0.2038937360048294,0.2321687489748001,0.1007460653781891,-0.07221370935440063,-0.05889225006103516,2,-0.3060113791004381,-0.6371872933469982,-0.4939450957857843,-0.5063275515096923,0.3429453372955322,-0.9393550753593445,-0.0006987781380303204,-5.572509765625,-49.14798736572266,9.084930419921875,2
1596230400.353645,37,0,102732.544343375,0.3513211956890953,1.541635278878875,1.227252437094095,-0.3043506741523743,-0.1460716426372528,0.1983911991119385,-0.08414468169212341,0.07025623321533203,0.04050338268280029,2,-0.3071690065127378,-0.6330377505210152,-0.4975147865084716,-0.5073357292300639,0.3366830945014954,-0.9415668845176697,-0.009820816107094288,-6.040382385253906,-49.49615478515625,8.707427978515625,2
1596230400.383815,38,0,102732.574441375,0.3764614650383318,1.515422495247128,1.229516825901888,-0.2718916237354279,-0.03841953352093697,-0.06636824458837509,-0.1481811106204987,0.01238763332366943,0.109474778175354,2,-0.306509450462254,-0.6299127642253094,-0.5004245040341647,-0.5087602212515622,0.3341794312000275,-0.9423272013664246,-0.01852373220026493,-6.308135986328125,-49.52208709716797,8.43536376953125,2
1596230400.413924,39,0,102732.604539375,0.4179351391367458,1.480194746732714,1.224359776431819,-0.6898255348205566,0.2696742713451385,-0.1411173492670059,-0.1102186441421509,-0.06052631139755249,0.2737703919410706,2,-0.3006038359231438,-0.6279144777757096,-0.5044561775981102,-0.5107685495744093,0.3381550014019012,-0.940588653087616,-0.03072148561477661,-6.134101867675781,-49.32017517089844,7.844573974609375,2
1596230400.444153,40,0,102732.634636375,0.5050072873296879,1.416709752483576,1.217015937429743,-0.9912770390510559,0.7586904764175415,-0.08507565408945084,0.01844167709350586,0.013916015625,0.06563079357147217,2,-0.2869988718496913,-0.6253365288019417,-0.5157826304308266,-0.5104449974331676,0.3423417508602142,-0.9380697011947632,-0.05317174643278122,-6.200309753417969,-49.65487670898438,5.83270263671875,2
1596230400.474125,41,0,102732.664734375,0.573942029256127,1.366575594656164,1.211315701595476,-0.8969945907592773,0.106489472091198,-0.1168506890535355,-0.03851708769798279,-0.09221160411834717,0.1267292499542236,2,-0.2765249190675154,-0.6227856757277549,-0.5251896236791025,-0.5097524509083685,0.3444770276546478,-0.9360796809196472,-0.07134394347667694,-6.315505981445312,-49.87810516357422,5.133453369140625,2
1596230400.504399,42,0,102732.694832375,0.6819706007300163,1.275241069555585,1.190546605680133,-1.884455561637878,0.6537112593650818,-0.4439835548400879,0.1351285576820374,0.002518832683563232,0.3167328238487244,2,-0.2597867522818193,-0.615189316513902,-0.5370681055106361,-0.5153743524165754,0.3550592362880707,-0.9285719990730286,-0.1081058979034424,-5.690910339355469,-50.07583618164062,2.888275146484375,2
1596230400.534315,43,0,102732.724930375,0.8126457541053881,1.176909540953963,1.167087424203639,-1.576630592346191,0.780761182308197,0.09463360905647278,-0.06227320432662964,-0.0168190598487854,-0.04370170831680298,2,-0.2379130877420019,-0.6066438455446223,-0.5552888752152386,-0.5167542328596582,0.3627505600452423,-0.919610321521759,-0.150761216878891,-5.421127319335938,-50.19232940673828,1.14410400390625,2
1596230400.564536,44,0,102732.755028375,0.9127550230641199,1.11594238245398,1.146308583462794,-1.678118586540222,1.252902388572693,-0.4245582818984985,-0.33635413646698,-0.389551043510437,0.1233323812484741,2,-0.2169074270092327,-0.6020639935708937,-0.5718502999671493,-0.5132808956970132,0.3699787259101868,-0.9112498164176941,-0.1809402257204056,-5.307655334472656,-49.94343566894531,-1.962158203125,2
1596230400.594503,45,0,102732.785125375,1.034567506584917,1.065313418054323,1.087111954022452,-3.69389009475708,3.875518083572388,-1.509367823600769,-0.4867554903030396,-0.5617866516113281,-0.05152827501296997,2,-0.1723061580471133,-0.5980940489455593,-0.5928875546257201,-0.5109582428070358,0.4068858027458191,-0.8852875232696533,-0.2251881957054138,-4.80120849609375,-49.89522552490234,-4.096893310546875,2
1596230400.624668,46,0,102732.815223375,1.204764169726872,1.110275517169971,0.9819544048206991,-5.051548957824707,7.597301483154297,-1.501121044158936,-0.8796830177307129,-0.6672621965408325,0.3845595121383667,2,-0.06679954397336402,-0.6100198769881159,-0.6294010074208739,-0.4767261660098043,0.4975374639034271,-0.8315844535827637,-0.2468271404504776,-0.040679931640625,-48.57195281982422,-11.05960083007812,2
1596230400.65466,47,0,102732.845321375,1.433226854211284,1.192733905763125,0.8641675670007082,-6.370672225952148,10.32838821411133,-2.259853601455688,-0.9863395690917969,-0.4384626746177673,0.7569637298583984,2,0.07374484032859074,-0.6121533475385698,-0.6708519650755778,-0.4120525681429176,0.6034224629402161,-0.7605550289154053,-0.2396599501371384,3.524032592773438,-47.05078125,-15.48590087890625,2
1596230400.685254,48,0,102732.875419375,1.67083296631197,1.357645199000207,0.7298724932367602,-6.729109764099121,12.02826499938965,-2.815999269485474,-0.7152320742607117,0.4140802621841431,1.076961040496826,2,0.2486075542912291,-0.599473034289377,-0.6894989205709774,-0.3215859746435324,0.7283934950828552,-0.6667746305465698,-0.157652735710144,15.48168182373047,-41.26849365234375,-21.22921752929688,2
1596230400.714883,49,0,102732.905517375,1.885478243955012,1.603386687104244,0.6158333185782855,-4.872548580169678,12.45418548583984,-3.64439868927002,0.06728082895278931,0.6522212624549866,1.355668544769287,2,0.4302196181174478,-0.57289646185529,-0.6642575088824644,-0.2132197035010618,0.8158588409423828,-0.5776389837265015,0.02659855224192142,23.02360534667969,-37.34665679931641,-20.94314575195312,2
1596230400.745217,50,0,102732.935614375,2.07875192721805,1.81754793072687,0.5256847427322174,-6.112733364105225,8.394311904907227,-3.657630443572998,0.6982974410057068,0.3984134793281555,0.9336265325546265,2,0.5756804291654832,-0.5236697920000912,-0.6155906282262847,-0.1241374674514321,0.8387810587882996,-0.5018054246902466,0.2112760096788406,36.60746765136719,-28.83322143554688,-13.05999755859375,2
1596230400.775105,51,0,102732.965712375,2.32855029494315,1.919199676669676,0.5111555026697315,-6.880773067474365,6.627210140228271,-1.19930374622345,1.026671886444092,0.4147351980209351,0.2043018341064453,2,0.6704206484475583,-0.4465603529833178,-0.5918252119019262,-0.02937407416568366,0.8197782635688782,-0.4891853928565979,0.2977599799633026,40.43669128417969,-24.70926666259766,-9.6781005859375,2
1596230400.805429,52,0,102732.995810375,2.504264504885322,1.967763054390396,0.5840759626524574,-3.567353010177612,2.414728164672852,1.727992653846741,0.6214264035224915,0.8127875328063965,-1.039783358573914,2,0.707300520854891,-0.4012362693939669,-0.5787514470046348,0.06149905168945893,0.7693511247634888,-0.5514287948608398,0.322529137134552,43.29670715332031,-21.19032287597656,-5.208526611328125,2
1596230400.835351,53,0,102733.025908375,2.514414709879884,1.996706523465994,0.6516419028633874,0.6694560050964355,0.4970856010913849,1.632245421409607,0.5000847578048706,0.8283185958862305,-0.4851577281951904,2,0.7040340911164287,-0.4105866958567582,-0.5711589451984453,0.09763174480569131,0.7240581512451172,-0.6064926981925964,0.3284908831119537,42.84123229980469,-22.08782196044922,-4.51531982421875,2
1596230400.86557,54,0,102733.056006375,2.465329511692028,2.026287570210234,0.664273873604145,0.959114670753479,-0.7021585702896118,0.4905277192592621,0.05743098258972168,0.05282056331634521,0.07976329326629639,2,0.6994680007553828,-0.4288668085231532,-0.5637233466673873,0.09504588041201767,0.707088828086853,-0.6164875626564026,0.346364438533783,41.70172119140625,-24.83501434326172,-3.133819580078125,2
1596230400.895661,55,0,102733.086103375,2.423741959933321,2.019812334100897,0.6785684387861033,0.3471173048019409,-0.8119244575500488,1.621614694595337,-0.2629857063293457,-0.1071455478668213,1.097113132476807,2,0.6854372161205247,-0.4462455182503506,-0.5686444691924945,0.08765875459008474,0.7013055086135864,-0.6276792287826538,0.3379184901714325,41.21261596679688,-25.27146148681641,-3.34869384765625,2
1596230400.925788,56,0,102733.116201375,2.413207739335502,2.052130004615365,0.7452657068569033,-2.020354032516479,2.916820526123047,2.160610437393188,-0.4907727241516113,0.3519132733345032,1.617058396339417,2,0.6771272152363553,-0.4600171399373715,-0.5618819083545871,0.1190444600820862,0.6514061093330383,-0.6781671047210693,0.3402340710163116,39.49092102050781,-27.87940216064453,-3.715484619140625,2
1596230400.955666,57,0,102733.146299375,2.473566095074199,2.122989667618055,0.8132752810567165,-1.883008480072021,3.412751913070679,0.02850399725139141,-0.5673516988754272,0.6751781105995178,0.2696328163146973,2,0.694351717161327,-0.4450760154453994,-0.5362711858399575,0.1794326241779065,0.5849993228912354,-0.7265415787696838,0.3604339361190796,38.26383972167969,-30.08453369140625,-1.199432373046875,2
1596230400.985848,58,0,102733.176397375,2.512066282359061,2.131422002420493,0.7837444867569674,1.452534675598145,-0.8473571538925171,-2.447625875473022,0.8100320100784302,0.4237471222877502,-0.7989246845245361,2,0.711844276543259,-0.4261201268104098,-0.5287053319749564,0.1793598200555952,0.599854052066803,-0.7059364914894104,0.3766012787818909,38.52940368652344,-29.26604461669922,-0.104217529296875,2
1596230401.015912,59,0,102733.206494375,2.511165272348613,2.079885225103939,0.7060887904522291,0.6497371792793274,-1.884311318397522,-0.9164520502090454,1.170587062835693,-0.14596027135849,-0.06763291358947754,2,0.7150514968115456,-0.4172853425404317,-0.5440787327721642,0.1362073366520198,0.6644139885902405,-0.6488626599311829,0.3708513975143433,41.03982543945312,-25.87841796875,-0.812408447265625,2
1596230401.046045,60,0,102733.236592375,2.472855990865565,2.047861877523657,0.7319140810568613,0.495859295129776,-2.078661203384399,2.768290042877197,-0.1329165101051331,-0.7407804727554321,-0.3850069046020508,2,0.6923578126571475,-0.4375267525220648,-0.5589929537250395,0.1293738512127724,0.6608372330665588,-0.6682947278022766,0.3415780067443848,40.71432495117188,-26.12287139892578,-2.03546142578125,2
1596230401.076024,61,0,102733.266690375,2.4202257883465,2.051628047632818,0.7958057685699755,-0.3656865656375885,0.6106094717979431,1.559340715408325,-0.9817287921905518,-0.1864506602287292,0.1588693857192993,2,0.6667139257137504,-0.4661610921051934,-0.5640919077971692,0.1413741589477202,0.6203696131706238,-0.714427649974823,0.323627233505249,37.99894714355469,-29.80451202392578,-4.03277587890625,2
1596230401.106216,62,0,102733.296788375,2.437167849510721,2.110381790496317,0.8083459277030093,-0.410553902387619,3.548013210296631,-1.053528308868408,-0.8140317797660828,0.2068925499916077,0.06563568115234375,2,0.6839019406022128,-0.4579421062445202,-0.5435324671931008,0.1647406483078857,0.5925624370574951,-0.7231457233428955,0.3548656702041626,37.50337219238281,-30.61617279052734,-3.4375,2
1596230401.136603,63,0,102733.326885375,2.480375296473309,2.193273286525955,0.7742496268019974,-0.2363502383232117,3.666248083114624,-1.62088680267334,-0.0537448525428772,0.03210258483886719,0.08509886264801025,2,0.7232677120731078,-0.4304743503649127,-0.5089377507047841,0.1804383746372773,0.5808482766151428,-0.6991797685623169,0.4168486893177032,38.98696899414062,-28.73769378662109,1.581268310546875,2
1596230401.166504,64,0,102733.356983375,2.530778950561271,2.248981682312874,0.7555654760275766,-0.9411954879760742,2.119513750076294,-0.6719039678573608,0.4766415953636169,-0.01094859838485718,0.05930078029632568,2,0.7517682498563942,-0.4039487450407893,-0.4826787887905755,0.1966998454953978,0.5668118596076965,-0.6857003569602966,0.4566601812839508,39.63352966308594,-27.81652069091797,4.102691650390625,2
1596230401.196482,65,0,102733.387081375,2.553530444920945,2.267246264672494,0.7672978356759478,-0.1190422400832176,-0.02417882904410362,0.4443912506103516,0.4372252225875854,0.02146309614181519,-0.3141984939575195,2,0.7581121355002313,-0.3951426794000854,-0.4740299715700158,0.2107695061052691,0.5521677136421204,-0.6941927671432495,0.4617435038089752,39.95391845703125,-27.20745086669922,6.335906982421875,2
1596230401.226766,66,0,102733.4171794167,2.52656732611757,2.266468182581941,0.7747777370320666,0.5311776399612427,-0.7805041074752808,0.5395092964172363,0.08511263132095337,0.149383008480072,0.08511590957641602,2,0.7508721067388566,-0.4064204058977504,-0.4775032494802482,0.2073742898343177,0.5485254526138306,-0.6995572447776794,0.4579729437828064,39.7135009765625,-27.33292388916016,6.147613525390625,2
1596230401.25665,67,0,102733.4472774167,2.510835302104719,2.261361892798319,0.7738367329824462,-0.0190858468413353,-0.4104087352752686,-0.07516904175281525,-0.1386966109275818,-0.0280718207359314,0.288646936416626,2,0.7466366452187556,-0.4127059728851517,-0.4809765788379034,0.2021604001147619,0.5513638854026794,-0.6988845467567444,0.4555850028991699,39.35041809082031,-27.90202331542969,5.488494873046875,2
1596230401.289537,68,0,102733.4773744167,2.522663622930685,2.240620375211941,0.7775313480215325,-0.4659774005413055,-0.2761072218418121,0.04724081605672836,-0.09063273668289185,-0.09062951803207397,0.05664980411529541,2,0.7432227737820305,-0.4109047858184696,-0.4876941526145672,0.2023152195094155,0.5586662292480469,-0.7015222907066345,0.4424456655979156,39.53114318847656,-28.04090118408203,5.277740478515625,2
1596230401.31682,69,0,102733.5074724167,2.529973942759787,2.240393136929769,0.7861716444514134,-0.08294349163770676,0.7185692191123962,0.02775632962584496,-0.07248383760452271,0.1339386105537415,-0.0834038257598877,2,0.7427276016877525,-0.4094213382244602,-0.4874349100932133,0.2076945815885486,0.5539935231208801,-0.7076535224914551,0.4385402500629425,39.68252563476562,-28.2579345703125,4.543701171875,2
1596230401.349924,70,0,102733.5375704167,2.536808886824013,2.265298623865081,0.7802268365792233,-0.05804257839918137,0.9728311896324158,-0.4867836833000183,0.05960845947265625,0.1771537065505981,-0.06827855110168457,2,0.7514534172162427,-0.4034352655583203,-0.4771368866793895,0.2118913573577985,0.5461233854293823,-0.7034406661987305,0.4548844993114471,39.53810119628906,-27.94672393798828,5.099853515625,2
1596230401.377032,71,0,102733.5676684167,2.551742780834025,2.275925651821774,0.772697407991171,-0.03649834543466568,0.5400769710540771,-0.2597121000289917,0.2711293697357178,0.06639266014099121,-0.05237853527069092,2,0.7586237356537028,-0.3956402964206922,-0.4711786465223343,0.2143583621725453,0.5452769994735718,-0.6980692148208618,0.4640824198722839,39.60305786132812,-27.61785125732422,6.311920166015625,2
1596230401.409625,72,0,102733.5977654167,2.550252719906079,2.287152167637835,0.7698001711956436,0.06796829402446747,0.03868386149406433,0.1886165142059326,0.3513631820678711,0.06564527750015259,-0.001808047294616699,2,0.7615989410247472,-0.3946102564997019,-0.4669340018243148,0.2149936504647775,0.5415554642677307,-0.6959917545318604,0.4715003967285156,39.89735412597656,-27.34876251220703,6.9761962890625,2
1596230401.437313,73,0,102733.6278634167,2.540668639210118,2.28786605309295,0.7811327944500203,-0.1160781309008598,-0.3262774348258972,0.5159085988998413,0.1106951832771301,0.02733916044235229,0.04999041557312012,2,0.7573606781196346,-0.3996767522218395,-0.4682537345332735,0.2177192667680105,0.5352392792701721,-0.7040842771530151,0.4666734039783478,39.56520080566406,-27.72368621826172,6.830963134765625,2
1596230401.469711,74,0,102733.6579614167,2.53087150900486,2.284244892898284,0.7856094847833542,0.2478617429733276,-0.3729386925697327,-0.01344659738242626,-0.1482212543487549,0.01279306411743164,-0.008476734161376953,2,0.7535430469528139,-0.4043578199730121,-0.4709085057238943,0.216593544283474,0.5345370769500732,-0.7072561979293823,0.4626647531986237,39.41281127929688,-28.21047973632812,6.372100830078125,2
1596230401.497417,75,0,102733.6880594167,2.520406749890032,2.266096466604063,0.7800557030470067,0.3643948435783386,-1.55269992351532,0.1442261040210724,-0.1756674647331238,-0.05925184488296509,-0.07183516025543213,2,0.7483488930309899,-0.4094785015617303,-0.4785514214922731,0.2080620303402102,0.5458530187606812,-0.7033190131187439,0.4553974270820618,39.46165466308594,-28.21603393554688,6.058074951171875,2
1596230401.529334,76,0,102733.7181564167,2.503193779588918,2.225321538856509,0.7729689381054835,0.5494261384010315,-1.61795437335968,-0.08951461315155029,0.09740746021270752,-0.05384719371795654,0.02239346504211426,2,0.7364478389009558,-0.4189751338177102,-0.4950481564724043,0.1924358044024003,0.567902684211731,-0.6982635855674744,0.4357911646366119,39.81672668457031,-28.20493316650391,4.1046142578125,2
1596230401.557909,77,0,102733.7482544167,2.489934670928698,2.187396895108025,0.7653352355301414,0.2318189740180969,-1.597341537475586,0.1515294462442398,-0.1030970811843872,-0.06900441646575928,0.01688849925994873,2,0.725836661833462,-0.4262265204339334,-0.509751721635844,0.1778908403392298,0.5883494019508362,-0.6927787661552429,0.4170158207416534,39.77127075195312,-27.946044921875,3.020782470703125,2
1596230401.589641,78,0,102733.7783524167,2.478447967483957,2.155980497375457,0.7620158008538556,0.4046450555324554,-0.8579521775245667,-0.1706677675247192,-0.1225822567939758,0.02977687120437622,-0.00703585147857666,2,0.7160170000089315,-0.4325716361004335,-0.5218993056454729,0.1668001572744763,0.6030715107917786,-0.6903811693191528,0.3995971381664276,39.84974670410156,-28.25205230712891,1.152099609375,2
1596230401.618155,79,0,102733.8084504167,2.47119963693777,2.15088561580854,0.7453030747990312,0.4177621901035309,0.03729408234357834,-0.4509680867195129,0.2276195287704468,0.08744686841964722,0.1880635023117065,2,0.7168809580478096,-0.4329844917433916,-0.5234502330742254,0.1568620962568925,0.6146652698516846,-0.6781945824623108,0.4027877449989319,40.06146240234375,-27.97760009765625,0.99871826171875,2
1596230401.649421,80,0,102733.8385474167,2.464368786148827,2.15115568657866,0.730693245284643,0.5369489789009094,-0.4561235904693604,-0.1853849589824677,0.1913672089576721,0.03944277763366699,0.1528757810592651,2,0.7187308160382265,-0.4331256153341658,-0.5230760465888847,0.1490619224094405,0.6227766871452332,-0.6673860549926758,0.4083435833454132,40.33236694335938,-27.20583343505859,1.103790283203125,2
1596230401.678114,81,0,102733.8686454167,2.440759684625845,2.138388781052462,0.7124547134910699,1.083616137504578,-1.492884397506714,-0.2490119636058807,-0.1726884841918945,-0.08048510551452637,0.0271298885345459,2,0.7142629007055104,-0.4395983454430883,-0.5282291037966647,0.1324974922788295,0.6380975246429443,-0.6536933779716492,0.4068363904953003,40.45436096191406,-27.16694641113281,1.25531005859375,2
1596230401.710249,82,0,102733.8987434167,2.405972633294058,2.100164672025674,0.6846541887332886,1.380836963653564,-2.506086587905884,-0.4082953929901123,-0.06384623050689697,-0.03446698188781738,0.03594708442687988,2,0.702429480216579,-0.4496490105624193,-0.5419932326834627,0.1032073206842408,0.6686099171638489,-0.632405161857605,0.3911828100681305,40.64144897460938,-26.823974609375,-0.445526123046875,2
1596230401.738259,83,0,102733.9288414167,2.360215168218417,2.030183112534162,0.6470089488960821,1.978759288787842,-4.022091865539551,-0.6336763501167297,0.2004073858261108,0.02894133329391479,0.02995645999908447,2,0.6809026782725153,-0.4618043590678736,-0.5653320588884994,0.05922796252012316,0.7151687741279602,-0.602802574634552,0.3537834584712982,40.70620727539062,-26.69873046875,-1.792572021484375,2
1596230401.769456,84,0,102733.9589384167,2.284680164512693,1.939116106177301,0.6023861465647639,3.043355464935303,-4.713234901428223,-0.3590576648712158,0.110492467880249,0.0474623441696167,-0.1045093536376953,2,0.6466091925408038,-0.4798269930709064,-0.5930083253793695,-0.001911948883492831,0.7687240839004517,-0.5666102170944214,0.2966747879981995,40.56614685058594,-25.771240234375,-6.309722900390625,2
1596230401.798453,85,0,102733.9890364167,2.161047908235547,1.859428349092951,0.5691107003172973,3.983586549758911,-5.268525123596191,0.5440330505371094,0.1288769245147705,0.174630880355835,0.05805349349975586,2,0.5995535744648827,-0.5103170912665992,-0.612337578440129,-0.0717946938310797,0.8075345158576965,-0.5388831496238708,0.2397760450839996,39.84934997558594,-26.05554962158203,-8.472076416015625,2
1596230401.829884,86,0,102734.0191344167,2.015912625459874,1.75543621704565,0.5672004399921744,3.877990961074829,-6.841743946075439,1.134485602378845,0.3105210065841675,0.3451486825942993,0.3844078779220581,2,0.5292336685238901,-0.5452829240799069,-0.6336259629574821,-0.1452457203988478,0.8290724158287048,-0.5372729897499084,0.1548434793949127,36.85772705078125,-28.65097808837891,-12.8084716796875,2
1596230401.858632,87,0,102734.0492324167,1.87163576543474,1.617665412551131,0.5879133781995374,4.091394424438477,-7.444525241851807,1.109290838241577,0.1813186407089233,0.2558047771453857,0.3608843088150024,2,0.4388346910143496,-0.5717664276078267,-0.6562841048580975,-0.2231551951466135,0.8311857581138611,-0.554625928401947,0.0389854684472084,30.85931396484375,-32.59257507324219,-18.13229370117188,2
1596230401.890222,88,0,102734.0793294167,1.709606007058398,1.472062860861799,0.6263720526055215,4.83368968963623,-8.499268531799316,1.35758113861084,-0.05249345302581787,0.0615307092666626,0.4858511686325073,2,0.3319845502903828,-0.5914865033104713,-0.6677086516328512,-0.3067490717103327,0.8062137961387634,-0.5862094163894653,-0.07985994964838028,27.35487365722656,-34.77039337158203,-19.7083740234375,2
1596230401.918901,89,0,102734.1094274167,1.535910170652087,1.313421956190521,0.6990851661508009,4.755410671234131,-8.797554969787598,1.591316938400269,-0.1666602492332458,0.09868508577346802,0.6692419052124023,2,0.2033490246050491,-0.6010256626531941,-0.6673083262813,-0.390021894791637,0.7402193546295166,-0.6435177326202393,-0.1948346495628357,17.91513824462891,-40.18731689453125,-20.73086547851562,2
1596230401.949511,90,0,102734.1395254167,1.387112851747008,1.153549685766212,0.7757724029223166,3.781335353851318,-8.551848411560059,0.7435266375541687,-0.2932298183441162,0.04895472526550293,0.6648018360137939,2,0.07891414157327417,-0.5908674820858506,-0.654657623568865,-0.4648350372413931,0.6526352763175964,-0.7002676725387573,-0.2892963588237762,13.06224822998047,-42.57425689697266,-20.11239624023438,2
1596230401.978948,91,0,102734.1696234167,1.251893218912057,1.000331872745112,0.8363139650634261,3.967359781265259,-7.961193561553955,-0.02986786514520645,-0.3024935722351074,0.06924986839294434,0.2639484405517578,2,-0.03202037454530715,-0.5639256593335846,-0.6276240343230226,-0.5357710726876224,0.5640766024589539,-0.7421777844429016,-0.3619250953197479,5.728187561035156,-45.91285705566406,-17.21405029296875,2
1596230402.009972,92,0,102734.1997204167,1.088124926210055,0.9084964323255814,0.9194146435172172,4.565679550170898,-6.025992393493652,0.5620843172073364,-0.2327145636081696,0.07361900806427002,0.1467313170433044,2,-0.1375824442961175,-0.542824755241094,-0.5834107881202572,-0.5882553813188909,0.4781050086021423,-0.7952468395233154,-0.3728246986865997,2.887481689453125,-47.28473663330078,-14.61651611328125,2
1596230402.039131,93,0,102734.2298184167,0.9484544204296832,0.8911260740767879,1.01040024258502,3.332498550415039,-3.480994939804077,0.7153414487838745,-0.5359091758728027,0.05372023582458496,0.07547664642333984,2,-0.2163192055877667,-0.5349444762135244,-0.5461533564826938,-0.6072535421622633,0.4134069383144379,-0.8470446467399597,-0.3340808153152466,-0.3253097534179688,-49.45289611816406,-7.420074462890625,2
1596230402.085691,94,0,102734.2599164167,0.8178282338489665,0.8856437754176838,1.093214047419824,3.748847007751465,-4.663994789123535,0.8993179202079773,-0.1511763334274292,0.09021735191345215,-0.4351996779441833,2,-0.2853850379638273,-0.5226178842344226,-0.5112778605990672,-0.6196941460576828,0.3559043705463409,-0.8881087899208069,-0.2908518612384796,-1.792778015136719,-49.96785736083984,-4.268798828125,2
1596230402.099415,95,0,102734.2900144167,0.6611737809618178,0.8921010528144272,1.174734142113714,2.621454477310181,-4.12187385559082,0.4192341864109039,0.2643983066082001,-0.4177418947219849,-0.1444068551063538,2,-0.3563144484520534,-0.5019414580163153,-0.469887171023194,-0.632693404524052,0.3002949357032776,-0.9225873351097107,-0.2421895712614059,-3.118095397949219,-49.79072570800781,2.62957763671875,2
1596230402.130212,96,0,102734.3201114167,0.5685034759380492,0.8724993278800189,1.21654164628984,0.9990467429161072,-2.540310382843018,0.453146904706955,0.02229160070419312,-0.2371145486831665,-0.1657898426055908,2,-0.3999016329720868,-0.4780878901848721,-0.440357511863196,-0.6462165493677732,0.2656972408294678,-0.9379053115844727,-0.2230213135480881,-3.401107788085938,-49.98030090332031,4.96221923828125,2
1596230402.159638,97,0,102734.3502094167,0.5576053957449688,0.8593164624388682,1.237636494319317,0.4586745202541351,1.026592493057251,0.3229117095470428,-0.4213411211967468,0.2611492872238159,-0.2529799938201904,2,-0.4136046742550123,-0.4713416954856245,-0.4361013786296603,-0.6454329550313087,0.2476917952299118,-0.945013701915741,-0.2135363519191742,-3.566276550292969,-49.84115600585938,6.833587646484375,2
1596230402.189821,98,0,102734.3803074167,0.4883311715142926,0.9768797846384626,1.258217836688154,1.770686745643616,1.649375677108765,-0.07252867519855499,-0.2102618217468262,0.3547127842903137,0.3781937956809998,2,-0.4124838543403597,-0.4937744752973883,-0.440536149424453,-0.6260763866721499,0.2548529803752899,-0.9515438079833984,-0.1720876693725586,-4.138900756835938,-49.68585205078125,7.286865234375,2
1596230402.219784,99,0,102734.41040525,0.293465750134639,1.170899694655368,1.289096363098692,1.614309549331665,-1.416917324066162,0.308392345905304,-0.12008136510849,-0.8915098309516907,0.3779467344284058,2,-0.4308133576602966,-0.5101823513595354,-0.4258493619922236,-0.6105458295286794,0.2560562193393707,-0.960584282875061,-0.1082276403903961,-4.337440490722656,-49.06963348388672,10.90988159179688,2
1596230402.266802,100,0,102734.44050225,0.2725472057014767,1.157421747498408,1.305826154327023,0.09122887253761292,0.06294412910938263,0.4176934063434601,0.4640766680240631,0.212677538394928,0.1529669165611267,2,-0.4448464853357219,-0.4995123753475444,-0.4195289036917186,-0.6136729997170556,0.2398225963115692,-0.9651002883911133,-0.1051979809999466,-4.50250244140625,-48.86402893066406,11.91549682617188,2
1596230402.280045,101,0,102734.47060025,0.2043772796366407,1.242978507584145,1.326658349978559,1.311679482460022,0.6210986375808716,0.5355562567710876,0.04003584384918213,0.4430619478225708,-0.03285682201385498,2,-0.4511949809339784,-0.5074533101764498,-0.4219935024201504,-0.6006960152805059,0.2288476675748825,-0.9703460335731506,-0.07782845199108124,-5.328384399414062,-48.62777709960938,12.48858642578125,2
1596230402.329583,102,0,102734.50069825,0.06010333559789947,1.374604343254117,1.346994794637879,1.098891973495483,-1.256751894950867,-0.04282068461179733,-0.2150938510894775,-0.6483354568481445,-0.2886719703674316,2,-0.4669950136402499,-0.5101801597270488,-0.413699046223639,-0.5920177792393849,0.2176806628704071,-0.9750608205795288,-0.04326372221112251,-5.834259033203125,-48.22657775878906,13.63983154296875,2
1596230402.34023,103,0,102734.53079625,-0.0574499123809812,1.448653018516149,1.346962352629018,0.569395124912262,-1.144977927207947,0.01310981437563896,-0.2288427352905273,0.07466483116149902,0.3463616371154785,2,-0.4818089792443014,-0.5043190976575204,-0.3963060683911603,-0.5970459033443429,0.2203156650066376,-0.975053608417511,-0.02704470977187157,-5.398445129394531,-47.80129241943359,15.81076049804688,2
1596230402.390707,104,0,102734.56089325,-0.1217143010936158,1.496387050845895,1.349419191793561,0.4885944128036499,0.08559552580118179,-0.09898745268583298,-0.3319211900234222,0.1663247346878052,0.4259328842163086,2,-0.4892958399501461,-0.5024220913739832,-0.3893776830151113,-0.5971153288041853,0.2189660966396332,-0.975596010684967,-0.01632324606180191,-4.907463073730469,-47.58554077148438,16.99655151367188,2
1596230402.400339,105,0,102734.59099125,-0.178331619791885,1.560855549674438,1.339133405801401,0.2128115594387054,0.4406463503837585,-0.5696482062339783,0.04517850279808044,-0.1231106519699097,0.1012908220291138,2,-0.4884122535310673,-0.510208101966943,-0.3853257785996016,-0.5938561817985086,0.229584813117981,-0.9732859134674072,-0.002282326575368643,-4.875831604003906,-47.26991271972656,17.54302978515625,2
1596230402.445883,106,0,102734.62108925,-0.1893765885638636,1.580482544475371,1.325504275968782,0.01513140834867954,-0.06103377044200897,-0.106874518096447,0.3007360994815826,-0.0368812084197998,0.05115246772766113,2,-0.4839794185017623,-0.5166623698965559,-0.3827724521492955,-0.593556438915058,0.2428285777568817,-0.9700664281845093,0.002352163894101977,-4.293701171875,-47.00048065185547,17.7357177734375,2
1596230402.460943,107,0,102734.65118725,-0.2084809324576094,1.59102449165567,1.331870370126884,0.2670243084430695,-0.402932196855545,0.2897037863731384,0.08102554082870483,0.04414886236190796,0.09374368190765381,2,-0.4884968288055724,-0.5135798624112755,-0.3815802965089402,-0.5932984319761663,0.2366107255220413,-0.9715927243232727,0.004786853678524494,-4.1512451171875,-46.9959716796875,17.8665771484375,2
1596230402.507512,108,0,102734.68128425,-0.2201369141740401,1.592694344512319,1.333239709053809,-0.1658969223499298,-0.2680061757564545,-0.1137426197528839,0.05702245235443115,0.01502704620361328,0.2242016792297363,2,-0.4915066895637665,-0.510879222587049,-0.3789412992391945,-0.5948336135072186,0.2352719008922577,-0.9719159007072449,0.005152811761945486,-4.310516357421875,-47.08795928955078,18.04904174804688,2
1596230402.520836,109,0,102734.71138225,-0.2052733180655744,1.563908206766246,1.333311076929449,0.0748206302523613,-0.615962028503418,0.1732732951641083,0.08081445097923279,0.006377458572387695,-0.00312507152557373,2,-0.4931815025285594,-0.5059266411735241,-0.3763138591814582,-0.59933133029505,0.2352533042430878,-0.9719326496124268,-0.001620478578843176,-4.295951843261719,-47.11808013916016,18.12765502929688,2
1596230402.569556,110,0,102734.74148025,-0.2004912730934254,1.547049096114996,1.341478773004004,-0.1780836582183838,-0.3425107896327972,0.3101102113723755,0.09306353330612183,0.02719789743423462,0.04927217960357666,2,-0.4972411245336332,-0.5000524932928125,-0.3759941609411376,-0.6011048622860431,0.2272484451532364,-0.973821759223938,-0.005397535860538483,-4.410636901855469,-47.07762908935547,18.04000854492188,2
1596230402.581042,111,0,102734.77157825,-0.1940821580085304,1.522512295348682,1.349973656675013,0.04217974841594696,-0.6854019165039062,0.2585508227348328,-0.01983937621116638,-0.01787739992141724,-0.03187847137451172,2,-0.5024517311371764,-0.4921955363610254,-0.3742759601733803,-0.6043204118534713,0.2187764048576355,-0.9757176041603088,-0.01057162415236235,-4.312767028808594,-47.25457000732422,17.88507080078125,2
1596230402.629575,112,0,102734.80167525,-0.1661538678002064,1.475827514380671,1.357484416839581,-0.2898527681827545,-0.5783610343933105,0.24716717004776,-0.258309930562973,-0.08143854141235352,0.225816011428833,2,-0.5063538232605664,-0.4832893174353133,-0.3731147588622528,-0.6089520500154284,0.2107438743114471,-0.9773351550102234,-0.02007448300719261,-4.489227294921875,-47.19586944580078,17.88751220703125,2
1596230402.641278,113,0,102734.83177325,-0.1006922079340794,1.408073647317154,1.357957254681184,-0.6639463901519775,0.1320155411958694,-0.09272841364145279,-0.1963485181331635,0.07079261541366577,0.2802409529685974,2,-0.5034266847768868,-0.4790103338769269,-0.3761365408392053,-0.6128882117753383,0.2084452360868454,-0.9774351119995117,-0.0342213474214077,-4.46710205078125,-47.41193389892578,17.39752197265625,2
1596230402.686943,114,0,102734.86187125,-0.02470777218432714,1.33420104760238,1.351889650629744,-0.4151195883750916,0.01540834084153175,-0.06747733801603317,-0.03765982389450073,-0.008390367031097412,-0.107224702835083,2,-0.4974355944962077,-0.4765575158741238,-0.3794863249366167,-0.6176089405512787,0.2111123502254486,-0.9761354327201843,-0.05090152844786644,-4.422340393066406,-47.40300750732422,16.62240600585938,2
1596230402.701391,115,0,102734.89196925,0.03253047038114323,1.274506566909308,1.346561646576306,-0.5216817855834961,-0.2355446815490723,-0.1100507453083992,-0.2109773457050323,-0.01758778095245361,0.02547246217727661,2,-0.493539405478116,-0.4732411981144095,-0.3811793210927831,-0.6222249381215734,0.2126709222793579,-0.9749645590782166,-0.0649232491850853,-4.314903259277344,-47.59816741943359,16.17520141601562,2
1596230402.747009,116,0,102734.92206625,0.09004024276011385,1.219742650478205,1.332795394995476,-0.5966626405715942,0.2728494107723236,-0.4351001381874084,0.07447454333305359,0.1075117588043213,0.04558271169662476,2,-0.4859422832850691,-0.4725702459617499,-0.3826977334707626,-0.6277577753027161,0.221381276845932,-0.9718112349510193,-0.08107492327690125,-3.870185852050781,-48.05322265625,15.09841918945312,2
1596230402.761653,117,0,102734.95216425,0.1502020696847492,1.163186253135698,1.317745640881476,-0.6416641473770142,-0.1195309311151505,-0.07484220713376999,0.206015020608902,-0.03230464458465576,-0.03939175605773926,2,-0.4775363381846277,-0.4715251215564957,-0.3849534816811953,-0.6335881058225314,0.229846864938736,-0.968153178691864,-0.09924621134996414,-3.733451843261719,-48.07244110107422,14.62451171875,2
1596230402.809439,118,0,102734.98226225,0.2221536215066953,1.089178040049202,1.310229475367945,-0.6326539516448975,-0.2415409982204437,0.1011678352952003,0.1368056535720825,0.03149521350860596,-0.0532221794128418,2,-0.4723665062281482,-0.466048719103805,-0.3888719412051397,-0.6390986112004473,0.2283220142126083,-0.966244101524353,-0.1193369477987289,-3.410140991210938,-48.42671203613281,13.42974853515625,2
1596230402.82177,119,0,102735.01236025,0.2845911349727815,1.015706547626985,1.303679398957857,-0.5109848976135254,-0.6243517398834229,0.00088454969227314,-0.07361507415771484,0.03801846504211426,-0.1670166254043579,2,-0.469902053795872,-0.4578627550049709,-0.390544360963605,-0.6457776219250948,0.2243198454380035,-0.9645358920097351,-0.1391075104475021,-3.37493896484375,-48.68547058105469,12.46896362304688,2
1596230402.869787,120,0,102735.04245725,0.3183766567668421,0.969270766425243,1.295331023573375,-0.3732478022575378,-0.2726274430751801,-0.09612791985273361,-0.03478899598121643,0.03070014715194702,-0.00305938720703125,2,-0.4682048164327501,-0.4514679941792722,-0.389386252372053,-0.6521802635398877,0.224252000451088,-0.9622987508773804,-0.1539217978715897,-3.204917907714844,-48.86192321777344,12.05667114257812,2
1596230402.881976,121,0,102735.07255525,0.3549113035008376,0.931764910069223,1.285617068625795,-0.5422117114067078,0.09829365462064743,-0.01397508569061756,-0.08250102400779724,-0.01650333404541016,0.1493948698043823,2,-0.46367893334809,-0.4484495204842864,-0.3912849526101632,-0.6563465524868466,0.2258154153823853,-0.9596112370491028,-0.1677897423505783,-3.001998901367188,-48.98770141601562,11.32131958007812,2
1596230402.929158,122,0,102735.10265325,0.3969549644975812,0.8951824669134708,1.274547825413321,-0.5102076530456543,0.0253474023193121,-0.1644533425569534,-0.01200562715530396,-0.0005241632461547852,0.0229569673538208,2,-0.4572760296872928,-0.446782211311115,-0.3953247985008617,-0.6595471806080413,0.2278027832508087,-0.956438422203064,-0.1825685799121857,-3.240959167480469,-49.17295074462891,10.6527099609375,2
1596230402.942085,123,0,102735.13275025,0.4305906761126767,0.8628609488955478,1.260069883555416,-0.5682814121246338,-0.01160363387316465,0.02192340791225433,0.03268063068389893,0.004489541053771973,-0.05702173709869385,2,-0.4506462000802337,-0.4444191907900982,-0.3974888993066701,-0.6643885167300292,0.2322802841663361,-0.9521117210388184,-0.198819175362587,-2.712837219238281,-49.32622528076172,9.619659423828125,2
1596230402.987348,124,0,102735.16284825,0.4690744973761743,0.8260439769217603,1.255499182036805,-0.2168951630592346,0.1310982555150986,0.05213677138090134,-0.05021712183952332,0.09707236289978027,-0.07226812839508057,2,-0.4477158841437592,-0.4409757381077304,-0.4015575079547461,-0.6662149599790467,0.2280019223690033,-0.9507042765617371,-0.2101817727088928,-3.034873962402344,-49.18446350097656,9.296234130859375,2
1596230403.002351,125,0,102735.19294625,0.4760671806806747,0.826254546196893,1.248381191795927,-0.289567768573761,0.1828280240297318,-0.1249867379665375,0.112363189458847,-0.0444563627243042,-0.04083395004272461,2,-0.4433643785834682,-0.4427991165237575,-0.4032564058785689,-0.6668891297759811,0.2330167889595032,-0.9484729170799255,-0.2147139459848404,-2.862167358398438,-49.36756896972656,8.681976318359375,2
1596230403.049727,126,0,102735.22304425,0.5032718325213191,0.8021229350122663,1.242892284643081,-0.3191236257553101,-0.0688297376036644,0.1920852810144424,0.1147787570953369,0.04344195127487183,-0.001412153244018555,2,-0.4400998741147668,-0.4408710003522301,-0.4065079778628556,-0.6683531653354409,0.2315068393945694,-0.9467194676399231,-0.2238897234201431,-2.739219665527344,-49.67504119873047,8.339996337890625,2
1596230403.062463,127,0,102735.25314125,0.5320320968020842,0.7704384902311365,1.241056339369336,-0.2315433621406555,-0.2656950354576111,0.1322870701551437,-0.03581830859184265,0.01456636190414429,-0.007476389408111572,2,-0.4395313561469668,-0.4366153360775273,-0.4090129767712378,-0.669990754865661,0.2255084216594696,-0.9461265802383423,-0.2323584705591202,-3.159858703613281,-49.79058074951172,7.72808837890625,2
1596230403.108662,128,0,102735.28323925,0.550019948300555,0.7447175434872944,1.23753994123046,-0.1873746663331985,-0.0948367640376091,-0.02100851945579052,-0.0343041718006134,0.02779543399810791,-0.130926787853241,2,-0.4395039600032233,-0.4319413332230283,-0.4091433667061535,-0.6729521365699795,0.2217114269733429,-0.94498211145401,-0.2405259013175964,-3.26983642578125,-49.80924224853516,7.700958251953125,2
1596230403.123052,129,0,102735.31333725,0.5552811524109729,0.7446571674555572,1.233345984878717,-0.1316469013690948,0.259905219078064,-0.04470124468207359,-0.02486404776573181,-0.008271634578704834,0.02464187145233154,2,-0.4367261243580108,-0.4330641584112495,-0.4106109713969239,-0.6731450857208732,0.2243809401988983,-0.9436019062995911,-0.2434514611959457,-3.008865356445312,-49.70087432861328,7.42254638671875,2
1596230403.16916,130,0,102735.34343525,0.5629552850144139,0.7440038186619619,1.227771319637776,-0.2345922887325287,0.1322369128465652,-0.09538120776414871,-0.01309731602668762,-0.006495177745819092,0.1151812672615051,2,-0.4329966970836092,-0.4344900038584065,-0.4126701837192485,-0.6733762835915654,0.2277808785438538,-0.9417415261268616,-0.2474645972251892,-3.06048583984375,-49.72965240478516,7.109771728515625,2
1596230403.18282,131,0,102735.37353225,0.5715736729786727,0.7310059717218202,1.222965571773304,-0.1034426987171173,-0.4315993785858154,0.02213647961616516,-0.07380566000938416,0.03010916709899902,-0.1042112708091736,2,-0.4319113089135163,-0.4319344731772465,-0.4124473762786621,-0.6758492299502427,0.2275637835264206,-0.9401143193244934,-0.2537704706192017,-3.052093505859375,-49.98050689697266,6.826324462890625,2
1596230403.226424,132,0,102735.4036305,0.5751444513704075,0.7205770068550245,1.221289614998498,-0.0976884588599205,-0.03178216144442558,-0.037833571434021,-0.02559426426887512,-0.001828432083129883,0.003903388977050781,2,-0.4326265751837803,-0.4291589192856016,-0.4112950087886752,-0.6778593094817364,0.2259444296360016,-0.939541757106781,-0.2573137283325195,-2.917404174804688,-49.82991027832031,6.812713623046875,2
1596230403.243277,133,0,102735.4337285,0.5821760327525242,0.7158208495029666,1.21619967846897,-0.2453564256429672,0.1282831579446793,-0.06874845921993256,-0.1162743866443634,-0.01515841484069824,0.03116607666015625,2,-0.4300787314318204,-0.4289953218572649,-0.4123404689893888,-0.6789481862253195,0.227853462100029,-0.9377866387367249,-0.2619906067848206,-2.902488708496094,-49.86547088623047,6.51141357421875,2
1596230403.285199,134,0,102735.4638255,0.5865734788836958,0.7142047590210361,1.210321490548504,-0.0387423187494278,-0.02202482149004936,-0.1214023977518082,0.01412031054496765,0.06243771314620972,-0.1077525615692139,2,-0.4271336349964666,-0.4292985682233934,-0.4131312393534445,-0.6801339193537687,0.2310365438461304,-0.935729444026947,-0.2665191888809204,-2.612403869628906,-49.958740234375,6.00604248046875,2
1596230403.303368,135,0,102735.4939235,0.5797223515200569,0.7160103225476464,1.209104391680525,-0.02832717821002007,-0.1714444309473038,0.04709798470139503,0.1964081227779388,0.007375478744506836,-0.06169658899307251,2,-0.4277467368991206,-0.4284301951484764,-0.4111103014924987,-0.6815193145390175,0.2322647273540497,-0.9352994561195374,-0.2669605910778046,-2.575325012207031,-49.9818115234375,5.929962158203125,2
1596230403.348058,136,0,102735.5240215,0.6081139344191835,0.6873923399979278,1.213902526906014,-0.1236330196261406,0.05173354968428612,0.2981229424476624,-0.0180833637714386,-0.01387906074523926,0.002842247486114502,2,-0.429508474737033,-0.4248642206492522,-0.414916401652434,-0.6803361380779644,0.2216807454824448,-0.9369865655899048,-0.2700257301330566,-2.931785583496094,-49.92815399169922,5.966796875,2
1596230403.363565,137,0,102735.5541195,0.6183591803785248,0.6785653272080188,1.210547538689142,-0.1374085992574692,0.0311675313860178,-0.2223814129829407,-0.1466245651245117,0.03428995609283447,0.05322253704071045,2,-0.4278336548164471,-0.423968917266707,-0.4163431847300577,-0.6810778067973672,0.2212603837251663,-0.9358091354370117,-0.2744174301624298,-3.12017822265625,-50.04066467285156,5.822967529296875,2
1596230403.405923,138,0,102735.5842165,0.6022421413645379,0.6897940379727969,1.204689737450694,0.01781118661165237,-0.2906661927700043,-0.1832625716924667,-0.04506602883338928,0.01164233684539795,0.04385995864868164,2,-0.4265891911957501,-0.4242072377213728,-0.4129414560423266,-0.6837757451985003,0.2278125137090683,-0.9337282180786133,-0.2761397659778595,-2.5733642578125,-50.12045288085938,5.517730712890625,2
1596230403.42374,139,0,102735.6143145,0.5944635467192796,0.6904666036556651,1.203388664884556,0.0139529574662447,-0.1059792041778564,-0.03609458729624748,-0.06288382411003113,0.012969970703125,-0.03730148077011108,2,-0.4275789271911062,-0.4227468927108703,-0.4103510560299887,-0.6856188837836918,0.2287715822458267,-0.9332616329193115,-0.2769226431846619,-2.598678588867188,-50.03667449951172,5.618927001953125,2
1596230403.467393,140,0,102735.6444125,0.5982914596115759,0.6909482033415003,1.200321421492181,-0.281475841999054,0.2696795463562012,-0.05930377542972565,-0.1117267310619354,-0.0277174711227417,0.000878453254699707,2,-0.425445984546971,-0.4236591527148047,-0.4115963287663255,-0.685636279068372,0.2307281643152237,-0.9321554899215698,-0.2790172696113586,-2.432418823242188,-49.99913024902344,5.50933837890625,2
1596230403.483924,141,0,102735.6745095,0.6041843331119144,0.6963861008569877,1.192454683413468,-0.0536714643239975,0.345498263835907,-0.1261618435382843,0.04422488808631897,0.03691715002059937,-0.1017599105834961,2,-0.4199278925458525,-0.4265827973667145,-0.4143272960099857,-0.6855804211085714,0.2369384467601776,-0.9292784929275513,-0.2833753526210785,-2.439071655273438,-49.92040252685547,5.1800537109375,2
1596230403.528457,142,0,102735.7046075,0.5946490356393622,0.7086689606777273,1.193505989601905,0.1118077710270882,-0.1216505318880081,0.0126325311139226,0.1325309872627258,0.04193389415740967,-0.0580289363861084,2,-0.4198445011079577,-0.428811985160816,-0.4137008567110821,-0.6846183786134052,0.239765077829361,-0.92966628074646,-0.2797017395496368,-2.223854064941406,-50.10148620605469,5.218170166015625,2
1596230403.544175,143,0,102735.7347055,0.5932110343978569,0.7022647291989191,1.195741513034445,0.07601345330476761,-0.3063939809799194,-0.005211783107370138,0.02060043811798096,-0.0104716420173645,0.0217624306678772,2,-0.4223668028624971,-0.4263613150528914,-0.411992311962262,-0.6856272462404043,0.2366261184215546,-0.9304875731468201,-0.279644638299942,-2.424713134765625,-50.04859924316406,5.3297119140625,2
1596230403.586605,144,0,102735.7648035,0.5827395402619141,0.704578677143026,1.195934065590834,0.07508033514022827,-0.1412520110607147,-0.1348688900470734,-0.03056582808494568,0.01218289136886597,0.04496341943740845,2,-0.4241974517621676,-0.4249431157073901,-0.4088996161444239,-0.6872270293097693,0.2371564358472824,-0.9305580854415894,-0.2789597511291504,-2.088729858398438,-50.0419921875,5.43212890625,2
1596230403.60433,145,0,102735.7949005,0.577828596630217,0.7101945817493305,1.194724762231045,-0.04360173642635345,0.1374492794275284,-0.0345243364572525,-0.02292943000793457,-0.02912986278533936,0.06850653886795044,2,-0.4236115654195123,-0.4258109082037282,-0.4083276387598894,-0.6873913807214153,0.2394528687000275,-0.9301146268844604,-0.2784766256809235,-2.122367858886719,-49.98662567138672,5.53240966796875,2
1596230403.649828,146,0,102735.8249985,0.5759252859248277,0.7142560498013534,1.192671837202342,-0.02242070809006691,-0.0704035609960556,-0.0670330673456192,0.03651809692382812,0.02457761764526367,-0.004063725471496582,2,-0.4223679112944551,-0.4267709851712496,-0.4084025687685584,-0.6875166392767935,0.2418320327997208,-0.9293586611747742,-0.2789437472820282,-1.93768310546875,-49.82173156738281,5.557159423828125,2
1596230403.664569,147,0,102735.8550965,0.5699410448055224,0.714585146933397,1.193309866766925,0.07690833508968353,-0.2090231478214264,-0.0769718736410141,0.04507386684417725,0.02206909656524658,0.02356988191604614,2,-0.4238309845067592,-0.4256278671918874,-0.4064545613955665,-0.688478744599168,0.241535410284996,-0.9295940399169922,-0.2784164249897003,-1.705810546875,-49.87364959716797,5.43157958984375,2
1596230403.706133,148,0,102735.8851935,0.5618157799860394,0.7148783949467835,1.193956835589372,0.08522830158472061,-0.2951687574386597,-0.03735770657658577,-0.01538482308387756,0.02591216564178467,-0.01535409688949585,2,-0.4257559474463167,-0.4240121867031243,-0.4037594597487101,-0.6898722537730042,0.2412225008010864,-0.9298322796821594,-0.27789106965065,-1.666488647460938,-49.99102783203125,5.7041015625,2
1596230403.724886,149,0,102735.9152915,0.5580348691392654,0.7136106537073295,1.191976041692427,-0.2014501094818115,0.02003579027950764,-0.1548550724983215,-0.0400528609752655,-0.01537120342254639,-0.0203624963760376,2,-0.4260201808738842,-0.4227440042058705,-0.4020524960146208,-0.6914825071359232,0.2420752197504044,-0.9291015863418579,-0.2795886099338531,-1.469795227050781,-50.12837982177734,5.833099365234375,2
