loggingTime,loggingSample,identifierForVendor,motionTimestamp_sinceReboot,motionYaw,motionRoll,motionPitch,motionRotationRateX,motionRotationRateY,motionRotationRateZ,motionUserAccelerationX,motionUserAccelerationY,motionUserAccelerationZ,motionAttitudeReferenceFrame,motionQuaternionX,motionQuaternionY,motionQuaternionZ,motionQuaternionW,motionGravityX,motionGravityY,motionGravityZ,motionMagneticFieldX,motionMagneticFieldY,motionMagneticFieldZ,motionMagneticFieldCalibrationAccuracy
1596230429.501337,1,0,102761.6787632917,0.9341496943484749,0.4456325540237332,1.097399184958333,0.03393220528960228,-0.2050457745790482,0.00733413640409708,-0.00146484375,-0.009014666080474854,-0.06008619070053101,2,-0.3693042364853497,-0.3973924921090524,-0.477591753196677,-0.6910858624838254,0.1965113580226898,-0.8900246024131775,-0.411387175321579,-5.827728271484375,-49.96096038818359,-2.051361083984375,2
1596230429.517997,2,0,102761.7088602917,0.9298812246692061,0.4445785261439723,1.101268264477829,0.04538067430257797,-0.1174438744783401,0.02095415629446507,0.008702009916305542,0.0396568775177002,0.0398743748664856,2,-0.3719404858731804,-0.3967609420487291,-0.4758037211314008,-0.691268196502222,0.1945951133966446,-0.8917819261550903,-0.4084820449352264,-5.612358093261719,-50.20847320556641,-2.0260009765625,2
1596230429.549276,3,0,102761.7389582917,0.9309886700081873,0.4423444703514202,1.101625264823658,0.0372881293296814,0.04168872535228729,-0.003281388897448778,-0.03225712478160858,-0.01752221584320068,-0.04296976327896118,2,-0.3723942214495694,-0.3962428614669062,-0.4757597066218181,-0.6913515191674762,0.1935458779335022,-0.8919433951377869,-0.4086282849311829,-5.656936645507812,-50.09918975830078,-1.92987060546875,2
1596230429.578151,4,0,102761.7690552917,0.9282572332443679,0.4469248583628896,1.101826290321663,0.0022599957883358,0.05006905272603035,-0.03718847036361694,-0.01030050218105316,0.01487326622009277,0.02278101444244385,2,-0.3719265371170289,-0.3973447793641323,-0.4756620189461731,-0.6910378533541355,0.1953379064798355,-0.8920342922210693,-0.4075755476951599,-5.826400756835938,-50.02503967285156,-1.93524169921875,2
1596230429.609544,5,0,102761.7991532917,0.9277551394525458,0.4473003171705066,1.102706584063551,0.07382664829492569,-0.0824667289853096,0.02975247427821159,0.01981118321418762,-0.009824097156524658,-0.02746516466140747,2,-0.3722868773788277,-0.3974990370532955,-0.4755321904853711,-0.6908444078058927,0.1951511800289154,-0.8924317955970764,-0.4067939817905426,-5.783897399902344,-50.01039123535156,-1.85540771484375,2
1596230429.63837,6,0,102761.8292502917,0.9253590326892517,0.4454490039342073,1.104314890558367,0.04924889281392097,-0.130191758275032,-0.1081498861312866,-0.03873464465141296,0.02896541357040405,-0.02458280324935913,2,-0.3738413252940574,-0.3966272017839081,-0.4743106925884975,-0.6913457591754855,0.1937791854143143,-0.8931562900543213,-0.4058590531349182,-5.637031555175781,-49.92949676513672,-1.685943603515625,2
1596230429.66916,7,0,102761.8593472917,0.9126963892932155,0.4547498811328274,1.104637969211788,0.1483228355646133,0.03693459555506706,-0.1525685340166092,-0.01604139804840088,-0.0142371654510498,0.02920222282409668,2,-0.3742842744455845,-0.3975190915280205,-0.4716607148366225,-0.6924058660147461,0.1974187195301056,-0.8933015465736389,-0.4037797152996063,-5.397880554199219,-50.20534515380859,-1.692108154296875,2
1596230429.698569,8,0,102761.8894452917,0.9049431605852762,0.4645608132436541,1.106929202387034,0.1481627821922302,0.1282918751239777,-0.01119194179773331,-0.0118844211101532,0.0418580174446106,0.06874430179595947,2,-0.3744312630810592,-0.3997560848525715,-0.4707567806945109,-0.6916532820708311,0.2004531025886536,-0.8943290114402771,-0.3999926149845123,-5.231681823730469,-50.05508422851562,-1.524017333984375,2
1596230429.728949,9,0,102761.9195422917,0.8999649538263246,0.4729775547978952,1.109654645604745,0.1169187426567078,0.1289288848638535,-0.09339006245136261,0.07621441781520844,-0.0003663897514343262,-0.06869560480117798,2,-0.3745354217602115,-0.4020737254324022,-0.4705507892767609,-0.6903924418273346,0.2027014493942261,-0.8955450654029846,-0.3961198627948761,-5.361396789550781,-50.29463958740234,-1.31146240234375,2
1596230429.758816,10,0,102761.9496392917,0.895318433043546,0.4809818035012819,1.112539677195671,0.1298143267631531,0.1358644962310791,0.181519627571106,0.09457495808601379,-0.01026904582977295,-0.1264024972915649,2,-0.374740205362084,-0.4043185772464434,-0.4703877864591507,-0.6890801200814141,0.2046693563461304,-0.8968250751495361,-0.392192542552948,-5.334342956542969,-50.15110015869141,-1.174468994140625,2
1596230429.809087,11,0,102761.9797372917,0.9061593699071868,0.4722604547692334,1.126610852839995,0.4789803624153137,-0.04375546798110008,0.346203476190567,-0.004998117685317993,0.06571340560913086,-0.05824905633926392,2,-0.3802010663853563,-0.405097691680497,-0.4721508884171639,-0.6844095941061998,0.1954809576272964,-0.9029609560966492,-0.3826860189437866,-5.561607360839844,-50.27703857421875,-1.0643310546875,2
1596230429.81891,12,0,102762.0098342917,0.8625808797834761,0.5065713488545349,1.119568061829457,0.08131921291351318,0.1885707080364227,-0.8137307167053223,-0.3966917991638184,-0.00477445125579834,-0.00467073917388916,2,-0.3782201027053361,-0.4077946508010085,-0.4638124547890155,-0.6895874789978396,0.2115737795829773,-0.8999121785163879,-0.3813061416149139,-4.945404052734375,-50.10258483886719,-0.477203369140625,2
1596230429.866992,13,0,102762.0399322917,0.862612896451813,0.5170995096213705,1.140582935903868,0.7071785926818848,0.3155542314052582,0.8821324706077576,0.009455472230911255,0.04409193992614746,-0.101302444934845,2,-0.3841616708172531,-0.4137047854105376,-0.4655951838601281,-0.6815344958547818,0.2061805129051208,-0.9088767766952515,-0.3625363111495972,-4.955917358398438,-50.36896514892578,-0.170166015625,2
1596230429.879165,14,0,102762.0700292917,0.8585652950270855,0.5259939117678294,1.155075529025558,0.344726949930191,-0.02436057850718498,-0.5769456028938293,-0.3230167329311371,-0.003040075302124023,-0.1204825043678284,2,-0.3886984756130225,-0.4174732481418337,-0.4657798393923926,-0.6765195292103934,0.2027617841959,-0.914825439453125,-0.3492591679096222,-5.664405822753906,-50.26210784912109,0.896636962890625,2
1596230429.90952,15,0,102762.1001262917,0.792798761163808,0.5860332947711475,1.15843344130375,0.7328349351882935,0.08201701939105988,-0.573578417301178,-0.2592335939407349,0.08324438333511353,-0.2133038640022278,2,-0.3900711696703704,-0.4253156599427459,-0.4551940398610239,-0.6780481735746715,0.2216528654098511,-0.9161763787269592,-0.3339021503925323,-5.134040832519531,-50.20718383789062,1.3740234375,2
1596230429.939335,16,0,102762.1302242917,0.7233544247216264,0.6577222514250175,1.165556493146115,0.7241082787513733,0.4342144131660461,-0.7366432547569275,0.08463083207607269,0.07294607162475586,-0.09610486030578613,2,-0.39174045279846,-0.4365108835882135,-0.4458483666418294,-0.6761779885806254,0.2410044223070145,-0.9190078973770142,-0.3119953274726868,-3.871177673339844,-50.32763671875,2.667572021484375,2
1596230429.970084,17,0,102762.1603212917,0.6469610677213261,0.7349529999218022,1.169966300180566,0.7747248411178589,-0.06873254477977753,-0.4967108070850372,0.08675724267959595,0.01125305891036987,-0.06856083869934082,2,-0.3933833280715986,-0.4477931752525746,-0.4354107269913114,-0.6746467215794625,0.2616377472877502,-0.9207374453544617,-0.2894616723060608,-3.151443481445312,-50.28443908691406,3.2730712890625,2
1596230429.999608,18,0,102762.1904182917,0.5806866429575573,0.7910846442589866,1.178120017169487,0.8151171803474426,-0.054221261292696,-0.4797024428844452,-0.04643887281417847,0.1106687188148499,-0.0299193263053894,2,-0.3995082454518759,-0.4537325006179815,-0.4247633427722357,-0.6738664164291661,0.2721172869205475,-0.9238882660865784,-0.2690399587154388,-2.286956787109375,-50.09693145751953,4.85186767578125,2
1596230430.047117,19,0,102762.2205162917,0.4925996134319822,0.8832245942824338,1.183255571355701,0.9986826777458191,0.6264142394065857,-0.7393796443939209,-0.04097473621368408,-0.08176398277282715,-0.007660567760467529,2,-0.4024963888148366,-0.466983034848948,-0.4141328464370473,-0.6696398109367477,0.2920469045639038,-0.925841212272644,-0.2398470044136047,-1.783653259277344,-50.13951110839844,5.4945068359375,2
1596230430.059779,20,0,102762.2506132917,0.4037612106818698,0.9873339588441121,1.17905826851416,0.5761655569076538,0.8207398653030396,-0.6651926636695862,0.1142229437828064,0.09812343120574951,0.2145180106163025,2,-0.4006685059441604,-0.4840413508252489,-0.4048669057311512,-0.6642676149446549,0.3186311423778534,-0.9242468476295471,-0.2103374451398849,-0.4063491821289062,-49.94115447998047,7.392486572265625,2
1596230430.106755,21,0,102762.2807112917,0.3471959959874042,1.056703464734988,1.181939930986275,1.108762145042419,0.22525854408741,-0.05755604431033134,0.1510056257247925,0.1426765322685242,-0.4003772735595703,2,-0.4016525173848829,-0.4954367563661475,-0.400526474085988,-0.6578723434082507,0.3301233351230621,-0.9253432154655457,-0.1864353567361832,0.1332550048828125,-49.65413665771484,8.193603515625,2
1596230430.11996,22,0,102762.3108082917,0.2398255812822025,1.160254014621642,1.198681606820299,1.112427830696106,0.1864393204450607,-0.03287794813513756,0.07443851232528687,0.04962849617004395,-0.04546141624450684,2,-0.4142778867838491,-0.5057856079599251,-0.3895945353635746,-0.648668376214572,0.3333734571933746,-0.9315605163574219,-0.1451095044612885,0.3522872924804688,-49.31848907470703,10.26348876953125,2
1596230430.165402,23,0,102762.3409052917,0.1749112629476171,1.238696956629458,1.210116630471029,0.9023103713989258,0.9019181728363037,0.08562260121107101,-0.04161769151687622,-0.05097085237503052,0.1911839246749878,2,-0.4196851311160358,-0.5160765332488646,-0.3874294437222444,-0.6383007639498044,0.3336273431777954,-0.9356571435928345,-0.1150588020682335,-0.00868988037109375,-48.90431213378906,12.2908935546875,2
1596230430.180177,24,0,102762.3710032917,0.1014814226198781,1.336492227587791,1.219327372321123,0.8169724345207214,0.6874428987503052,0.08414898812770844,-0.08894342184066772,0.06741130352020264,0.1335269212722778,2,-0.423090059640852,-0.5301227154068532,-0.3869650565328944,-0.6246779534758158,0.3348698019981384,-0.93886798620224,-0.079929418861866,-0.1632156372070312,-48.80838775634766,13.10076904296875,2
1596230430.226944,25,0,102762.4011002917,0.05026601850286515,1.393881159463767,1.226212694911891,0.4278756976127625,0.2774570882320404,0.07456183433532715,-0.06362462043762207,-0.101122260093689,0.100669801235199,2,-0.4278985450052488,-0.5358890512763999,-0.3849854345228771,-0.6176665391707429,0.3325320482254028,-0.9412161707878113,-0.05945152044296265,-0.5793380737304688,-48.53395080566406,14.39102172851562,2
1596230430.240244,26,0,102762.431197125,0.006393568799781278,1.445849122123055,1.230814315373619,0.616853654384613,0.3526292145252228,0.07377658039331436,-0.1966753900051117,0.02954792976379395,0.08056402206420898,2,-0.4311664665595183,-0.5415870828569945,-0.3838799979676502,-0.6110769374141314,0.3308703899383545,-0.9427606463432312,-0.04155781865119934,-0.8762283325195312,-48.47201538085938,14.80624389648438,2
1596230430.287419,27,0,102762.461295125,-0.04599000210114375,1.511747617354027,1.228515337851638,0.4645594656467438,0.7405626773834229,-0.3937453031539917,0.02819710969924927,0.07384288311004639,0.2234798669815063,2,-0.4321730863530177,-0.5507474261283271,-0.381556765328807,-0.6035877023650482,0.3350516259670258,-0.9419915080070496,-0.01980739273130894,-0.9335708618164062,-48.17449188232422,15.85006713867188,2
1596230430.300611,28,0,102762.491392125,-0.08237340349579352,1.564249433395,1.215887581962564,0.4274806380271912,0.260003000497818,-0.259120374917984,0.3064144551753998,-0.08116406202316284,-0.04915869235992432,2,-0.428682247390348,-0.5613323443206006,-0.3782437279790325,-0.5983888187035287,0.3474972546100616,-0.9376782178878784,-0.002275059930980206,-0.6877365112304688,-47.80133819580078,16.396240234375,2
1596230430.350155,29,0,102762.521490125,-0.1246029523092456,1.595676738930247,1.220397304737132,0.5878880620002747,-0.5964877605438232,0.4805760085582733,0.05193924903869629,-0.01444548368453979,0.100508451461792,2,-0.4358716867876771,-0.5606119974967597,-0.3737784231330133,-0.5966738529007405,0.343166172504425,-0.9392358064651489,0.008539877831935883,-0.6543960571289062,-47.55906677246094,16.93048095703125,2
1596230430.360714,30,0,102762.551587125,-0.1690473801589079,1.627090943384572,1.233047683892698,0.3326760530471802,0.1259530782699585,0.1844330281019211,-0.3179807662963867,0.01623177528381348,0.4428207874298096,2,-0.445821627211852,-0.5572837119871925,-0.3713799467232697,-0.5939315763757043,0.3308383524417877,-0.9435030817985535,0.01864411868155003,-1.029655456542969,-47.54322052001953,17.61172485351562,2
1596230430.408765,31,0,102762.581684125,-0.1720012464998435,1.648550616725888,1.224748956360136,-0.03097460046410561,0.7127531170845032,-0.5793231129646301,-0.2047785818576813,-0.009354293346405029,0.1204534769058228,2,-0.4405000902328558,-0.5649184111124733,-0.3726541657997675,-0.5898776553563033,0.3381571173667908,-0.9407207369804382,0.02634628117084503,-0.9381866455078125,-47.36245727539062,17.96209716796875,2
1596230430.420913,32,0,102762.611782125,-0.1848244764096817,1.670032363828901,1.21069002982391,0.2890354692935944,0.1311722844839096,-0.2703902125358582,-0.04024630784988403,-0.06631439924240112,-0.08488297462463379,2,-0.4365470096845952,-0.5717360360780297,-0.369107946802666,-0.5884758485668977,0.3506397604942322,-0.9358593821525574,0.03491077199578285,-0.6338882446289062,-47.07932281494141,17.93389892578125,2
1596230430.466181,33,0,102762.641879125,-0.1894795106062895,1.68797229939942,1.204440606663438,-0.07161973416805267,1.00150465965271,-0.212001696228981,0.0746060311794281,0.2161945104598999,0.3370707035064697,2,-0.4329842447240626,-0.577463196314157,-0.3696250584310506,-0.5851820826456714,0.3557585775852203,-0.9336389899253845,0.04187819734215736,-0.4290008544921875,-46.88229370117188,18.3580322265625,2
1596230430.481136,34,0,102762.671976125,-0.1868721648871761,1.717197511610024,1.19586602919163,0.09277708828449249,0.624337375164032,-0.3039648234844208,0.1795428693294525,-0.1892362833023071,-0.1112146377563477,2,-0.4246415832985797,-0.5885494572723443,-0.3738497013162078,-0.5775165355838392,0.3622898161411285,-0.9305331707000732,0.05342187732458115,-0.7481231689453125,-47.03935241699219,18.17898559570312,2
1596230430.526742,35,0,102762.702074125,-0.173225928403393,1.707529955275576,1.192257510183352,-0.3856143653392792,-0.08550936728715897,0.07806900143623352,0.05309316515922546,-0.01876801252365112,0.1396467685699463,2,-0.4215264304763087,-0.5894935553390638,-0.3745656636391775,-0.5783712503532674,0.3661136031150818,-0.9292056560516357,0.05037436634302139,-0.4155502319335938,-46.95824432373047,18.36990356445312,2
1596230430.541415,36,0,102762.732171125,-0.1356080247680372,1.679672878214117,1.197428381668809,-0.4600165486335754,0.887783408164978,-0.06734223663806915,-0.01264378428459167,0.2007925510406494,0.187031626701355,2,-0.4170429281311105,-0.5881262651520679,-0.3812781336177229,-0.5786272315026278,0.3625930547714233,-0.9311041831970215,0.03963461518287659,-0.4746322631835938,-47.05718231201172,17.968505859375,2
1596230430.58668,37,0,102762.762269125,-0.09393269339713345,1.666330333606588,1.189872906750001,-0.6657184958457947,0.2010219693183899,-0.3302693367004395,0.1888718605041504,-0.2621413469314575,-0.01345217227935791,2,-0.4052871982591547,-0.5945367652637629,-0.388166277251714,-0.5758428597941025,0.3700818419456482,-0.9283217191696167,0.0354633554816246,-0.5096435546875,-47.4530029296875,17.0130615234375,2
1596230430.601491,38,0,102762.792366125,-0.02260287168869574,1.5977282648134,1.189373553403636,-1.000074982643127,0.1298529356718063,0.1702784597873688,0.1509621143341064,-0.0350806713104248,0.3731434345245361,2,-0.397468559349795,-0.5890931359960854,-0.3948996642871748,-0.582273221207422,0.3721059262752533,-0.9281359314918518,0.01002395711839199,-0.525726318359375,-48.04167175292969,15.58978271484375,2
1596230430.647777,39,0,102762.822463125,0.09932711713794388,1.506075307993413,1.196997365232869,-2.216728925704956,1.948937773704529,0.2211132347583771,-0.05865445733070374,0.2425182461738586,0.659699022769928,2,-0.3825122420027472,-0.584701676276257,-0.4147373109482542,-0.5829246848165128,0.3643898963928223,-0.9309468865394592,-0.02361666969954967,-0.8672027587890625,-48.47135162353516,14.4591064453125,2
1596230430.662087,40,0,102762.852561125,0.3074192313891975,1.417098228028159,1.184703784370438,-2.727227687835693,4.125552177429199,-0.3539960086345673,-0.2785839438438416,-0.5131555795669556,0.7910894751548767,2,-0.3362768002470216,-0.5984083869950783,-0.4554773482252663,-0.5668910768159863,0.3721318244934082,-0.9263875484466553,-0.05765063315629959,-2.38726806640625,-49.43008422851562,10.06036376953125,2
1596230430.709312,41,0,102762.882658125,0.6962602960855453,1.182867065386204,1.117911630724349,-8.313490867614746,7.088648319244385,-1.807913899421692,-0.1699041724205017,-0.2724753618240356,0.4422649741172791,2,-0.2525608909967484,-0.5945203222432638,-0.5180295002393011,-0.5607172239942707,0.405047595500946,-0.8991886377334595,-0.1655171662569046,-2.231941223144531,-49.90347290039062,6.086181640625,2
1596230430.72192,42,0,102762.912756125,1.08218954628334,1.199886845485844,0.9407827549333904,-8.973352432250977,11.98193168640137,-3.038161277770996,-0.5453879237174988,-0.04492497444152832,0.2661111950874329,2,-0.06142124868036833,-0.6240623204738112,-0.598292322593907,-0.4988185965276439,0.5490920543670654,-0.8080195188522339,-0.2135473042726517,3.076416015625,-49.04185485839844,-8.3656005859375,2
1596230430.770679,43,0,102762.942853125,1.456158798103907,1.258052825908009,0.7663740651333121,-9.574151992797852,12.78226661682129,-2.864754438400269,-0.4363698363304138,0.5108375549316406,1.236685395240784,2,0.1374551023988189,-0.6085052850315558,-0.663251333119153,-0.413430677392862,0.6854840517044067,-0.6935275793075562,-0.2216548323631287,8.181571960449219,-46.34835052490234,-15.38088989257812,2
1596230430.782158,44,0,102762.972950125,1.764323735529581,1.478923284401622,0.599528525777098,-8.743169784545898,14.12058353424072,-4.421947002410889,0.344016969203949,0.6957355141639709,1.232111930847168,2,0.3584719257377418,-0.5776036220468133,-0.6714822408940222,-0.294929459734761,0.8221197128295898,-0.5642532706260681,-0.07574386894702911,23.6273193359375,-36.86605072021484,-20.9742431640625,2
1596230430.830392,45,0,102763.003048125,2.079922211289305,1.719376019381134,0.4860791423672157,-9.400721549987793,12.68910598754883,-3.214144945144653,0.461480438709259,0.3526171445846558,1.209936499595642,2,0.5546575140002243,-0.5077386865581204,-0.6386186797506548,-0.1634702827761099,0.8744296431541443,-0.4671627879142761,0.1308870613574982,32.32411193847656,-30.65118408203125,-18.59307861328125,2
1596230430.842266,46,0,102763.033145125,2.387795564453416,1.941814698184203,0.4947511894051011,-7.735759258270264,11.16401672363281,-0.9361118674278259,0.8101304769515991,0.1253706812858582,-0.13236403465271,2,0.6932250054403812,-0.4230641320309425,-0.5833288925273001,-0.01352978616816519,0.8202042579650879,-0.4748126864433289,0.319088339805603,42.76275634765625,-21.04971313476562,-7.7900390625,2
1596230430.886085,47,0,102763.063242125,2.560068852218552,2.099710497675272,0.5723537590543339,-3.380305290222168,4.391810417175293,1.201501131057739,1.064368724822998,1.047191023826599,-0.7832121849060059,2,0.756873436510094,-0.373137436897212,-0.5276062263904566,0.09768668509981096,0.7257611751556396,-0.5416122078895569,0.424177885055542,44.33172607421875,-19.44734954833984,-1.479583740234375,2
1596230430.902547,48,0,102763.093340125,2.577556160281601,2.140473892774087,0.6258045893709799,0.1641533374786377,-0.8522252440452576,0.6435056328773499,1.666299223899841,1.193919658660889,-0.4330775737762451,2,0.7606286399212181,-0.3741894756556567,-0.5137305519537799,0.1323145313617871,0.6824949383735657,-0.5857495665550232,0.4371473789215088,43.69032287597656,-21.16329193115234,3.529296875,2
1596230430.94766,49,0,102763.123437125,2.549850854067243,2.057354586778079,0.6343830586732563,0.7274128794670105,-4.3066725730896,1.438193559646606,-0.2634890079498291,-0.2198618054389954,0.07435894012451172,2,0.7315991097477343,-0.3912397018110806,-0.5468156048992594,0.1126359838957006,0.7119643092155457,-0.5926806926727295,0.3766115307807922,43.50157165527344,-21.74653625488281,2.0845947265625,2
1596230430.962569,50,0,102763.153535125,2.477934285616104,2.01480055951067,0.6980397511982334,0.007668277248740196,-0.7644864320755005,3.38407564163208,-1.516386747360229,-0.5668946504592896,1.645969390869141,2,0.691634881973515,-0.4314909743734347,-0.5686720174007345,0.1098581691554404,0.6918212175369263,-0.642717182636261,0.3290865421295166,41.73741149902344,-24.89277648925781,-3.106292724609375,2
1596230431.007645,51,0,102763.183632125,2.510281337730881,2.047543160377906,0.7911934655404164,-2.90491509437561,4.008060455322266,0.7976868748664856,-1.362060546875,0.7250787615776062,1.106951594352722,2,0.6869488326809484,-0.4352020860697702,-0.5584352553461498,0.1638611164438342,0.6246075034141541,-0.711192786693573,0.3225991129875183,40.3260498046875,-27.31200408935547,-3.9671630859375,2
1596230431.022815,52,0,102763.213729125,2.57385763680776,2.148991750896023,0.7716196868591366,1.171133279800415,5.4239821434021,-3.322306394577026,0.4345210790634155,0.9366560578346252,0.2931948900222778,2,0.7319217302569229,-0.4001950446337026,-0.5161951857215563,0.1941051843086943,0.600269079208374,-0.6972970962524414,0.3917309939861298,39.81858825683594,-27.98338317871094,-0.130859375,2
1596230431.069123,53,0,102763.243827125,2.661931912685291,2.171005777539233,0.6390746054279577,-0.8620890974998474,-1.043854236602783,-5.247941493988037,2.351077556610107,0.8784746527671814,-0.3040816783905029,2,0.7809215659130949,-0.3418119777186595,-0.4961820803047206,0.1647098668905614,0.6623589396476746,-0.5964529514312744,0.4533478319644928,43.78529357910156,-21.00181579589844,5.488922119140625,2
1596230431.083097,54,0,102763.273924125,2.721169365213902,2.089177484132203,0.5738704744907918,1.319113731384277,-2.534152984619141,0.5044686794281006,1.222882747650146,-0.3572793006896973,-0.6153123378753662,2,0.7814465290400133,-0.312077798299669,-0.5221852879578438,0.1388205570370471,0.7294741272926331,-0.5428865551948547,0.4161024689674377,45.16813659667969,-17.61908721923828,4.32366943359375,2
1596230431.125965,55,0,102763.304021125,2.600421652614852,2.061206641320366,0.6283762174716504,1.645389556884766,-1.953236699104309,4.695210933685303,-0.06601029634475708,-0.5914455056190491,0.5770459175109863,2,0.7434659076003574,-0.3711724817954469,-0.5421720030865895,0.1246548517506792,0.7136359214782715,-0.5878319144248962,0.3810211420059204,43.80197143554688,-20.60593414306641,0.629730224609375,2
1596230431.145278,56,0,102763.334119125,2.530038299333797,2.106022454449027,0.7426149060331502,-1.86203944683075,0.9960734844207764,3.154974460601807,-0.8974990248680115,-0.2490182518959045,0.6887171268463135,2,0.7180826726093166,-0.4150054928795261,-0.5347404576169299,0.1618032188560718,0.6336772441864014,-0.6762166023254395,0.3757445812225342,41.86964416503906,-24.62706756591797,0.01544189453125,2
1596230431.184222,57,0,102763.364216125,2.551695432520154,2.130769301937738,0.8018791414811376,-0.3247069418430328,2.166661500930786,-0.3611541092395782,-0.8263081312179565,0.5669872164726257,-0.2067158222198486,2,0.7158678378345675,-0.4149787557813651,-0.525788381964745,0.1971607062295232,0.5891549587249756,-0.7186640501022339,0.3693482577800751,39.64547729492188,-28.45867919921875,0.442169189453125,2
1596230431.203479,58,0,102763.394314125,2.576832336148332,2.19725250863171,0.7605841248384654,0.1986673772335052,2.93456244468689,-2.00884222984314,0.04165327548980713,0.5976170897483826,0.1594915390014648,2,0.7471632179029646,-0.3925642163562511,-0.4977124826989864,0.1998067447890688,0.5868709683418274,-0.6893447041511536,0.4247190654277802,39.94309997558594,-27.6868896484375,2.266815185546875,2
1596230431.243134,59,0,102763.424411375,2.621603420827427,2.23620020491095,0.7281785968731229,-0.3836431801319122,1.141156315803528,-0.6485195159912109,0.4545082449913025,-0.4999967813491821,-0.1821682453155518,2,0.7720396902169653,-0.3665459693077285,-0.4773064404759277,0.2043947784238918,0.5871588587760925,-0.6655112504959106,0.4608024656772614,41.43826293945312,-24.89827728271484,6.691070556640625,2
1596230431.263559,60,0,102763.454508375,2.614027237857609,2.236430750585531,0.7435228285454134,0.1015873923897743,-1.057499051094055,1.338775515556335,0.2721532583236694,-0.2564885020256042,-0.6281287670135498,2,0.7674886831725181,-0.3718195327836428,-0.4785019811267325,0.2091577773245858,0.5789518356323242,-0.6768852472305298,0.4545772969722748,41.45310974121094,-24.83071899414062,6.98974609375,2
1596230431.304329,61,0,102763.484606375,2.580137804039616,2.230047538198417,0.7682486658260286,-0.05071114003658295,-0.5798060297966003,0.6426754593849182,-0.03644734621047974,0.2528829574584961,-0.1494882106781006,2,0.7541991383267879,-0.3891347917102241,-0.4853331148058744,0.210260694424333,0.5684361457824707,-0.6948768496513367,0.4404844641685486,40.40458679199219,-26.53792572021484,5.77886962890625,2
1596230431.325379,62,0,102763.514703375,2.578591917131889,2.228470562520364,0.7726280524773173,0.06448410451412201,0.09839429706335068,-0.2109142243862152,-0.5085198879241943,-0.07066798210144043,-0.04906356334686279,2,0.7525571066981732,-0.390537222682424,-0.4862472603784599,0.2114286260427294,0.566716194152832,-0.6980195641517639,0.4377230405807495,40.2763671875,-26.81462097167969,5.220001220703125,2
1596230431.361967,63,0,102763.544800375,2.581351350939722,2.235398364250397,0.7588263990136683,0.09978361427783966,0.7664752006530762,-0.6127642393112183,-0.1760892868041992,-0.08357572555541992,0.4114162921905518,2,0.757776226493532,-0.3867094180302044,-0.4828368887851097,0.2076042683037003,0.5711995959281921,-0.6880702972412109,0.4475379586219788,40.50019836425781,-26.36389923095703,5.90826416015625,2
1596230431.384218,64,0,102763.574898375,2.607763350535829,2.231170581053019,0.7492191596874702,-0.5824738740921021,-0.4587159752845764,-0.5369400382041931,0.1898562908172607,0.1831295490264893,0.2763254642486572,2,0.7638503976285452,-0.3756450972527218,-0.4813565600927902,0.2090911763926198,0.5782806277275085,-0.6810672283172607,0.449153333902359,40.86453247070312,-26.04429626464844,6.3184814453125,2
1596230431.424667,65,0,102763.604995375,2.617351399146067,2.178515947340544,0.7434969704740563,0.6556388735771179,-2.073488473892212,-0.1212701350450516,0.2812570333480835,0.1673357486724854,-0.102203369140625,2,0.7539449370604001,-0.3764626293842406,-0.5001918874701079,0.1991253373963136,0.6043077707290649,-0.6768661737442017,0.4203141629695892,41.40663146972656,-25.6453857421875,4.635009765625,2
1596230431.445083,66,0,102763.635092375,2.593787568926057,2.13737140316048,0.7317506937830296,0.3936944007873535,-1.73942506313324,0.1532493829727173,-0.02094739675521851,-0.1246024370193481,-0.07900726795196533,2,0.7414617052404824,-0.3871761018419519,-0.5174959214712249,0.180352589687451,0.6277503967285156,-0.6681731939315796,0.3993415832519531,41.66157531738281,-25.37164306640625,3.459014892578125,2
1596230431.483893,67,0,102763.665190375,2.583215292860286,2.101519657844355,0.7346424135072996,0.1364186853170395,-0.987011194229126,0.08522758632898331,-0.4117586016654968,-0.3841280937194824,-0.2930903434753418,2,0.7293757081475062,-0.3947318734856913,-0.5316878090535024,0.1717726484166514,0.6399920582771301,-0.6703218221664429,0.3756043612957001,41.4501953125,-25.2652587890625,0.9832763671875,2
1596230431.504234,68,0,102763.695287375,2.588171414109779,2.093900289859419,0.7254483774865907,-0.1241708323359489,0.5821073651313782,-0.6703476905822754,-0.07596921920776367,0.03519749641418457,-0.1397830247879028,2,0.7302760963010387,-0.3919016414233401,-0.5338127584490148,0.1677905076080143,0.6481466293334961,-0.663470983505249,0.3737801611423492,41.57577514648438,-25.38655090332031,0.39129638671875,2
1596230431.544965,69,0,102763.725385375,2.603596143282702,2.102698015319429,0.7110760550574361,0.1131486222147942,0.5502675771713257,-0.3646679222583771,0.1594831943511963,0.1417516469955444,0.0002548694610595703,2,0.7386133622767007,-0.382861179482058,-0.5289286808371885,0.1676363629822562,0.6529846787452698,-0.652649462223053,0.3842647671699524,41.98768615722656,-24.41597747802734,0.9342041015625,2
1596230431.564727,70,0,102763.755482375,2.598446139747908,2.119070080655474,0.7070436344135105,0.036769799888134,0.263945996761322,0.1766488403081894,0.2243766784667969,0.04988902807235718,0.201172947883606,2,0.7427698554116151,-0.3826603738483661,-0.5231902934380733,0.1677373835345446,0.6488470435142517,-0.649588942527771,0.3962720334529877,42.21467590332031,-24.14400482177734,1.881591796875,2
1596230431.601541,71,0,102763.785579375,2.59894082212206,2.119747549851786,0.715640660715024,-0.2194893062114716,-0.1487827599048615,0.2596179842948914,0.1066077947616577,-0.06310832500457764,-0.07499074935913086,2,0.7412556662352304,-0.3839680736567772,-0.5231339730400795,0.1715788252916376,0.6437904834747314,-0.6561010479927063,0.3937828838825226,41.99299621582031,-24.29930114746094,2.01593017578125,2
1596230431.62563,72,0,102763.815677375,2.59681276831739,2.118110153414891,0.7238652940786015,-0.05970471352338791,0.003611309453845024,0.2475099265575409,-0.05631381273269653,0.03791767358779907,-0.1812762022018433,2,0.7386948213024047,-0.386372031623015,-0.5241423642672567,0.174129952928352,0.6398046016693115,-0.6622856855392456,0.3899067640304565,41.53277587890625,-24.75732421875,1.647216796875,2
1596230431.66281,73,0,102763.845774375,2.596032236758761,2.124204470731442,0.7285810636086965,0.003436995670199394,0.3344711065292358,-0.04528455063700676,-0.08178675174713135,0.120913565158844,-0.02657055854797363,2,0.7391442999977522,-0.3869653019390449,-0.5220832818279104,0.1770664938978612,0.6347525715827942,-0.6658115983009338,0.39215287566185,41.33796691894531,-25.08763885498047,1.571258544921875,2
1596230431.68502,74,0,102763.875871375,2.592788279329151,2.13464295062389,0.7199216922200979,0.3987735509872437,0.09942037612199783,-0.2021620869636536,0.1262681484222412,-0.02097547054290771,0.04172158241271973,2,0.7430545548997686,-0.3857222888374241,-0.5182595114626259,0.1746287039455707,0.6354737877845764,-0.6593257784843445,0.4018235206604004,41.83596801757812,-24.77178192138672,2.15045166015625,2
1596230431.726812,75,0,102763.905969375,2.579816420206929,2.127697228644836,0.7185450504555485,0.2559736669063568,-0.9790323972702026,0.4638326466083527,0.02610182762145996,-0.2592843174934387,-0.01110374927520752,2,0.7390191424830299,-0.3908840687315536,-0.5219066571386388,0.1693326501084194,0.6390191316604614,-0.6582901477813721,0.3978793025016785,41.63134765625,-24.76763916015625,2.139068603515625,2
1596230431.745167,76,0,102763.936066375,2.556166773965765,2.114739381383468,0.7248825016553709,0.4775554239749908,-0.7275504469871521,0.3883691132068634,-0.1296435594558716,-0.03685659170150757,0.1213150024414062,2,0.7295826796696112,-0.4017569726194836,-0.5288382789761941,0.1631881932951185,0.6405385136604309,-0.6630474925041199,0.3873991072177887,41.24481201171875,-25.35507202148438,0.9967041015625,2
1596230431.784971,77,0,102763.966164375,2.533528482262476,2.121000325291611,0.7242278121253592,0.4714085459709167,-0.02527510561048985,0.1683302074670792,-0.2241353392601013,0.01560992002487183,0.2165910005569458,2,0.7267874635126302,-0.4093828154730729,-0.5283533693736352,0.1582028409575126,0.6384701728820801,-0.6625572443008423,0.391628623008728,41.22964477539062,-25.46985626220703,0.76995849609375,2
1596230431.805595,78,0,102763.996261375,2.517606839188148,2.125247143301581,0.71785371999561,0.4537113904953003,-0.5393580794334412,-0.138865053653717,-0.02782821655273438,-0.07495146989822388,0.1058109998703003,2,0.7260085755946847,-0.4137482500494423,-0.5277796112978704,0.1522253284129787,0.6403791308403015,-0.6577695608139038,0.3965521454811096,41.17115783691406,-25.93897247314453,1.181640625,2
1596230431.841061,79,0,102764.026358375,2.501548878487163,2.105478996331844,0.705077985915699,0.7684808373451233,-1.492156147956848,-0.001665634568780661,0.2956094145774841,0.09630107879638672,-0.01795828342437744,2,0.7201669857450358,-0.4187994943319467,-0.5355108451404031,0.1385441739075429,0.655269980430603,-0.6480932235717773,0.3880670070648193,41.18344116210938,-25.86017608642578,0.700042724609375,2
1596230431.8657,80,0,102764.056456375,2.458066387105573,2.069259089823614,0.6979679233197419,1.412785410881042,-2.917276382446289,0.5615098476409912,0.01642423868179321,0.07941299676895142,-0.05721235275268555,2,0.7025869080457786,-0.4353279328912117,-0.5508073906586746,0.1160699500505773,0.6729231476783752,-0.6426621675491333,0.3662775456905365,41.02947998046875,-25.91035461425781,-1.20733642578125,2
1596230431.903736,81,0,102764.086553375,2.397630184423867,2.002208456513993,0.6852424146846492,1.607408404350281,-3.941231966018677,-0.1159376949071884,-0.2043631076812744,-0.04069030284881592,0.1233638525009155,2,0.673019875200695,-0.4570834675002724,-0.5761014719854813,0.07890391539196173,0.7033241391181946,-0.6328607201576233,0.3237620890140533,40.71441650390625,-26.36676788330078,-2.7757568359375,2
1596230431.92577,82,0,102764.116650375,2.343527795549853,1.913169091743388,0.6496471930986871,1.981598734855652,-4.025417327880859,-0.8562397956848145,-0.1357592344284058,-0.05358457565307617,0.07188653945922852,2,0.6421863176793976,-0.4703874685660429,-0.6046003742620312,0.0281169375137249,0.7500804662704468,-0.6049054861068726,0.2673352658748627,39.84271240234375,-26.72227478027344,-7.37554931640625,2
1596230431.965288,83,0,102764.146748375,2.272776711357357,1.841021008065354,0.604806819286243,2.474766254425049,-3.609323978424072,-0.813718318939209,0.1147419214248657,0.07166677713394165,0.02462053298950195,2,0.6133407330969748,-0.4833326215403942,-0.6240241602426726,-0.02822190878275571,0.7927600145339966,-0.5686031579971313,0.2195945531129837,39.72195434570312,-26.20909881591797,-9.562835693359375,2
1596230431.986051,84,0,102764.176845375,2.179651995602215,1.778608345259976,0.5630431158612462,3.350668668746948,-4.008662700653076,-0.6331676244735718,0.06274271011352539,0.1885119080543518,-0.1604157686233521,2,0.5804498619979934,-0.5003132903532631,-0.6363170723184215,-0.08868444390169924,0.8274403214454651,-0.5337620377540588,0.1744708567857742,38.72361755371094,-26.07240295410156,-12.912841796875,2
1596230432.025253,85,0,102764.206943375,2.048076111041492,1.713501081785484,0.5340538643754861,4.251981735229492,-5.116543769836426,0.1079994589090347,0.1355496644973755,0.2677333950996399,0.05711245536804199,2,0.5328227854548612,-0.5266006416567083,-0.6432721560691628,-0.1580902547106191,0.8520010113716125,-0.5090268850326538,0.1224167123436928,36.4129638671875,-27.61367797851562,-15.59475708007812,2
1596230432.046271,86,0,102764.237040375,1.886046279592498,1.601244538797832,0.5345205094681101,5.074739933013916,-7.79454231262207,0.711574375629425,0.4632177948951721,0.2271553874015808,0.20234215259552,2,0.4523116037005092,-0.5554392197336062,-0.6548411794040062,-0.2410069247822582,0.8601139187812805,-0.5094285011291504,0.02619702741503716,34.27066040039062,-29.58232879638672,-17.41159057617188,2
1596230432.086997,87,0,102764.267137375,1.681919903154561,1.451053345208742,0.5803949970572455,6.684370040893555,-9.277108192443848,1.970196604728699,0.5827903747558594,0.2399545311927795,0.4432816505432129,2,0.3311054281195088,-0.5834564799879028,-0.6608607639559172,-0.3364678995882173,0.8302579522132874,-0.5483542680740356,-0.09989546239376068,26.15061187744141,-35.21349334716797,-20.62115478515625,2
1596230432.106405,88,0,102764.297235375,1.457881895842323,1.276339482590219,0.6961821796484177,6.016055583953857,-11.15245151519775,2.988943815231323,0.2401585578918457,0.3897169232368469,0.9584149122238159,2,0.1686544436762097,-0.600177733107943,-0.6544679338690977,-0.4278013358186138,0.7342715263366699,-0.6412929892539978,-0.2226847410202026,20.35906982421875,-38.99733734130859,-20.57980346679688,2
1596230432.144141,89,0,102764.327332375,1.308944775182504,1.036279443017929,0.8312745148936241,4.346878051757812,-11.33041954040527,2.266279458999634,-0.1576423048973083,0.1160611510276794,0.9904835224151611,2,-0.002474701477261199,-0.5730045312411733,-0.6424666151812519,-0.5088184219974967,0.5799307227134705,-0.7387909293174744,-0.3433193564414978,6.990592956542969,-45.34291076660156,-18.342041015625,2
1596230432.166761,90,0,102764.357429375,1.207997703692937,0.7979549002439039,0.9475834149105178,3.869832515716553,-8.760047912597656,1.27890956401825,-0.9576172232627869,-0.180162250995636,0.1125164031982422,2,-0.1497152406584636,-0.5232993576501401,-0.6115713182040637,-0.5742157166128796,0.4178503453731537,-0.8120074272155762,-0.4074862599372864,1.130912780761719,-46.91336822509766,-15.90478515625,2
1596230432.203724,91,0,102764.387527375,1.100769234455416,0.7141506551139661,1.049236085535763,3.658147096633911,-3.424355030059814,0.4187572300434113,-1.152554988861084,0.1692330241203308,-0.4402649402618408,2,-0.2417584831176446,-0.5032970405869709,-0.5733457389836575,-0.5995993185958819,0.3263307213783264,-0.8670428991317749,-0.3764898478984833,-5.162712097167969,-49.30532073974609,-9.0274658203125,2
1596230432.226701,92,0,102764.417624375,0.9579338241959289,0.7752442708329566,1.12084778499777,2.587691783905029,-1.168012142181396,-0.4274402260780334,-0.4728502631187439,0.06352752447128296,-0.3879314064979553,2,-0.2891806779068971,-0.5109345381068517,-0.539712328359625,-0.6033496909768405,0.3043956458568573,-0.9004694819450378,-0.3106408715248108,-5.7838134765625,-49.86222076416016,-5.37164306640625,2
1596230432.26425,93,0,102764.4477217917,0.8351317962857093,0.8728781533274562,1.140254326226976,0.8735629916191101,0.009251007810235023,-0.8194167613983154,0.2691736817359924,-0.4316749572753906,-0.1680343747138977,2,-0.3028050697139045,-0.523646118019776,-0.5179449983938553,-0.6048443917996171,0.3197760879993439,-0.9087396860122681,-0.2682076692581177,-4.941574096679688,-50.22063446044922,-0.97283935546875,2
1596230432.287063,94,0,102764.4778197917,0.7818835700600147,0.9260361848432186,1.142331895169507,0.6812722086906433,0.2851440906524658,0.1420974880456924,0.5569183826446533,0.2932162880897522,-0.03304374217987061,2,-0.304012461660073,-0.5317188869012246,-0.5100673398049818,-0.6038896120415523,0.3320653736591339,-0.9096047878265381,-0.2497029006481171,-4.4998779296875,-50.228759765625,-0.025848388671875,2
1596230432.322203,95,0,102764.5079167917,0.7450663725724479,0.9609893257368382,1.170777910385143,1.234290838241577,-0.6556422710418701,0.5921615958213806,0.3021240234375,0.3881798386573792,0.1604279279708862,2,-0.3161277788091501,-0.5371654127587767,-0.5068899925688239,-0.5954653517228086,0.3192427754402161,-0.9210538268089294,-0.2230331003665924,-4.6572265625,-50.18266296386719,1.353302001953125,2
1596230432.347189,96,0,102764.5380147917,0.6640938986471057,0.9814183244599015,1.20936561942612,1.859842300415039,-2.743233203887939,0.4707304239273071,0.02488619089126587,0.1344945430755615,0.3352932333946228,2,-0.347649630415354,-0.5299650826728156,-0.4898051296508514,-0.5986381059844195,0.2939534485340118,-0.9353918433189392,-0.196553498506546,-5.215248107910156,-50.12963104248047,2.77056884765625,2
1596230432.383928,97,0,102764.5681117917,0.5450989638680381,1.008814769437739,1.257082141731992,1.886159658432007,-2.887704849243164,0.7620828151702881,-0.2456324696540833,-0.04361015558242798,0.5243436694145203,2,-0.390508093837479,-0.5150575122365655,-0.464292986582754,-0.6055172552017775,0.2611320912837982,-0.9511939883232117,-0.1644383817911148,-5.53729248046875,-49.76813507080078,6.5113525390625,2
1596230432.409845,98,0,102764.5982087917,0.4620131419839874,0.9968099681860455,1.295558810036022,0.6183533072471619,-2.519679307937622,0.4225993156433105,-0.4508596658706665,-0.005313515663146973,0.2181059718132019,2,-0.4286539782511625,-0.4924134531092403,-0.441151953235088,-0.6157674803465845,0.2282212972640991,-0.962360680103302,-0.1475695222616196,-5.906646728515625,-49.53852844238281,8.529052734375,2
1596230432.441285,99,0,102764.6283067917,0.4433843149986911,0.9939535511217716,1.305772078247025,0.2099206447601318,0.7417675256729126,0.03463470563292503,-0.1769933700561523,-0.2513911724090576,-0.0867544412612915,2,-0.4376525569278245,-0.4868612049438596,-0.4360708397435092,-0.6174694882572023,0.219548836350441,-0.9650861620903015,-0.1428528130054474,-5.898429870605469,-49.36456298828125,10.4083251953125,2
1596230432.467464,100,0,102764.6584037917,0.4184378567687612,1.082034238865542,1.307866538245377,0.5264825820922852,3.4286048412323,-0.2111159265041351,-0.387284517288208,-0.3425576686859131,0.3078103065490723,2,-0.425168253971053,-0.508147256383352,-0.4477595250069155,-0.6004412216851647,0.2294788509607315,-0.9656326174736023,-0.1220366433262825,-6.80401611328125,-49.33174896240234,10.41815185546875,2
1596230432.50325,101,0,102764.6885007917,0.286312011428504,1.257198051462115,1.308039003188262,1.016973853111267,-1.065088391304016,-0.5681678652763367,-0.4404455721378326,-0.1644116044044495,-0.2768309712409973,2,-0.420477716779406,-0.5321044773823598,-0.4456606507687904,-0.584337024490724,0.2470759451389313,-0.9656774401664734,-0.08012662827968597,-6.754730224609375,-49.30003356933594,10.9842529296875,2
1596230432.527686,102,0,102764.7185987917,0.2061104231981235,1.312268032311553,1.288151514760141,0.009096693247556686,0.3081889748573303,-1.004657387733459,0.5685254335403442,0.2057849168777466,0.3469142317771912,2,-0.423068805293893,-0.5341926637993926,-0.4295536004301951,-0.5925660303036945,0.2696273922920227,-0.9603211879730225,-0.07130196690559387,-5.282173156738281,-48.64797210693359,12.51962280273438,2
1596230432.564627,103,0,102764.7486957917,0.1822718924989793,1.335912835015509,1.281213092842309,0.6738428473472595,-0.7609599828720093,0.6060121059417725,-0.08850312232971191,-0.1750144362449646,-0.2711260914802551,2,-0.4220924939704911,-0.5372240459494072,-0.4259423368330444,-0.5931283350813346,0.2777114808559418,-0.9583629965782166,-0.06645650416612625,-4.904197692871094,-48.84334564208984,12.54080200195312,2
1596230432.588078,104,0,102764.7787927917,0.1141151720190637,1.380099321939785,1.303130537571047,0.3203430473804474,-0.2057265192270279,-0.08871361613273621,-0.3632466793060303,0.01349937915802002,0.4887535572052002,2,-0.4380629992920998,-0.5320108561032839,-0.4203814747183621,-0.5902071870362295,0.2596861124038696,-0.9643908739089966,-0.05013051629066467,-5.269790649414062,-48.63600158691406,13.72796630859375,2
1596230432.625981,105,0,102764.8088907917,0.1106737755412939,1.392148459687633,1.272767917268929,-0.1803491711616516,0.5098114013671875,-1.502127051353455,-0.06395751237869263,0.1239137649536133,0.3155823349952698,2,-0.4268180676723037,-0.5401267983137517,-0.4146164294641809,-0.5951322426636251,0.288962185382843,-0.9559172987937927,-0.0521787591278553,-4.765777587890625,-48.68241119384766,13.70379638671875,2
1596230432.648183,106,0,102764.8389877917,0.0890661229351318,1.428250300593054,1.239772982492227,0.1233773529529572,0.4958682060241699,-0.4719616174697876,0.30978062748909,-0.0627780556678772,0.0006558895111083984,2,-0.4148311174082269,-0.5521132352896266,-0.4074971242140245,-0.5975216281880777,0.3217142224311829,-0.9457102417945862,-0.04617223888635635,-2.516647338867188,-48.65067291259766,13.59555053710938,2
1596230432.685294,107,0,102764.8690857917,0.09775717662601777,1.425958211072148,1.241989264906507,-0.09336793422698975,-0.3045825958251953,0.3729996085166931,0.2974048852920532,-0.02838939428329468,-0.158922553062439,2,-0.4135994629809167,-0.5528400082837327,-0.4101823004654581,-0.5958637581772019,0.3195323050022125,-0.9464282393455505,-0.04660682007670403,-2.427764892578125,-48.55179595947266,13.7918701171875,2
1596230432.709574,108,0,102764.8991827917,0.08386999031231171,1.419507416318462,1.248318271731346,0.2863369286060333,-0.7337835431098938,-0.07698044180870056,0.151594877243042,0.1026456952095032,0.03289288282394409,2,-0.4207342984451252,-0.5469012488785159,-0.4063015972631148,-0.5989995242188185,0.3132971525192261,-0.9484530091285706,-0.04776334762573242,-2.84539794921875,-48.57460784912109,13.89593505859375,2
1596230432.743991,109,0,102764.9292797917,0.0784541213434885,1.406609064757404,1.243430088639263,-0.1315804570913315,-0.6269584894180298,-0.07338795810937881,0.1296231150627136,-0.03356432914733887,0.05790919065475464,2,-0.4232657784653877,-0.5427405890978089,-0.4007065302169596,-0.6047419175093356,0.3172252476215363,-0.9468924999237061,-0.05255746841430664,-2.404556274414062,-48.63643646240234,13.94342041015625,2
1596230432.768649,110,0,102764.9593777917,0.084535078796122,1.376498971122022,1.249326077441392,-0.01932617463171482,-1.009268045425415,0.4093148708343506,0.04974186420440674,-0.005170047283172607,0.01349329948425293,2,-0.4295193592463965,-0.5338639053900558,-0.3976135795402448,-0.6102505194623986,0.310016006231308,-0.9487718939781189,-0.06100489944219589,-2.233428955078125,-48.33194732666016,13.97418212890625,2
1596230432.802664,111,0,102764.9894747917,0.0959813904825057,1.332904690949236,1.256602618834783,-0.1341101825237274,-1.070135593414307,0.01125821936875582,0.1296273469924927,0.04236209392547607,0.1235311031341553,2,-0.4374750323493905,-0.521729025265691,-0.3934488294830953,-0.6177478528123219,0.3003458976745605,-0.9510458707809448,-0.07282884418964386,-2.258026123046875,-48.48162078857422,13.74777221679688,2
1596230432.828762,112,0,102765.0195727917,0.1259314650729173,1.26727241519969,1.254560752412015,-0.4566291272640228,-1.452075839042664,0.207176461815834,-0.09124034643173218,-0.08015167713165283,0.1580415368080139,2,-0.4419063874783296,-0.5081766801797349,-0.3878849285058713,-0.6293014959644839,0.2967750430107117,-0.9504128694534302,-0.09295041114091873,-1.877853393554688,-48.83034515380859,13.42892456054688,2
1596230432.866291,113,0,102765.0496697917,0.1880463553153991,1.169625760964403,1.257633326382197,-0.7549640536308289,-0.9171595573425293,0.243074506521225,-0.2445824146270752,0.01337194442749023,0.2953371405601501,2,-0.4463592445404148,-0.4905237614869802,-0.386580356016744,-0.6408629521601643,0.2836095690727234,-0.9513639211654663,-0.1202997267246246,-1.832740783691406,-48.70296478271484,12.97015380859375,2
1596230432.889271,114,0,102765.0797667917,0.2631749310034242,1.082864019848967,1.244697748030115,-0.9393129348754883,-0.2375279814004898,-0.2938587665557861,-0.2198821008205414,0.004995048046112061,0.1046313047409058,2,-0.440306771027563,-0.4806662081977584,-0.3891918198674673,-0.650860597502954,0.2829658091068268,-0.9472993612289429,-0.1501798927783966,-1.419990539550781,-49.07532501220703,11.75494384765625,2
1596230432.926281,115,0,102765.1098647917,0.3204543948659705,1.026813465090702,1.223164704339587,-0.9104290008544922,0.06148464232683182,-0.2612048387527466,-0.04453948140144348,-0.02524483203887939,0.1162750720977783,2,-0.4295785495960407,-0.4767653525729312,-0.3921704431990385,-0.6590594785025672,0.2914974391460419,-0.9401822090148926,-0.1763141304254532,-1.18084716796875,-49.14799499511719,10.63558959960938,2
1596230432.949243,116,0,102765.1399617917,0.3814498695916223,0.9731780616979405,1.202629916241044,-0.965873122215271,0.1392971575260162,-0.09862098842859268,0.1945896744728088,0.08260679244995117,0.1053516268730164,2,-0.4179006946774509,-0.4733965540722848,-0.3979202597828077,-0.6655177650335335,0.2975253164768219,-0.9329888224601746,-0.202509418129921,-1.022415161132812,-49.91961669921875,9.16656494140625,2
1596230432.983558,117,0,102765.1700587917,0.4422166752843429,0.9143209788044756,1.189953784014609,-0.6349163055419922,-0.3622635304927826,0.2575039863586426,0.2511191964149475,0.07323706150054932,-0.1914523839950562,2,-0.4105191081035017,-0.4669514845297286,-0.4043521417160016,-0.6707679533853886,0.2944436073303223,-0.9283517599105835,-0.2268607467412949,-0.90179443359375,-49.80072784423828,7.455902099609375,2
1596230433.009711,118,0,102765.2001567917,0.5016021583750241,0.8512110447390905,1.184294181582319,-0.9498974084854126,-0.07263782620429993,0.3975939750671387,0.1331412494182587,-0.03677475452423096,0.1805317401885986,2,-0.4074257712527681,-0.4580232517852472,-0.4107877573920926,-0.6748868049436995,0.2834966480731964,-0.9262332320213318,-0.2484378814697266,-1.155265808105469,-49.92208099365234,6.75537109375,2
1596230433.043507,119,0,102765.2302537917,0.5831939062642295,0.7675773216139116,1.172899116277994,-0.8007662296295166,-0.5163527727127075,0.4109264016151428,-0.1807205080986023,0.01583242416381836,-0.1874512434005737,2,-0.4018287744374621,-0.4462277243054644,-0.4204963340441853,-0.6801448927878424,0.2690639495849609,-0.9218778014183044,-0.2788289189338684,-1.860298156738281,-50.26195526123047,4.848114013671875,2
1596230433.069485,120,0,102765.2603517917,0.6259978686004005,0.7185477748546056,1.164233936484806,-0.5569653511047363,0.05071137472987175,0.008398321457207203,-0.1611195206642151,0.1278112530708313,-0.01418054103851318,2,-0.399253772144431,-0.4378982982629209,-0.4246911886151861,-0.6844551073749249,0.2603243291378021,-0.9184856414794922,-0.2976830005645752,-2.306716918945312,-50.23824310302734,4.3349609375,2
1596230433.104513,121,0,102765.2904487917,0.6547783717709542,0.702678495323518,1.150193057016444,-0.6088693141937256,0.4682953953742981,0.05030356720089912,-0.192887932062149,-0.05002766847610474,0.03339153528213501,2,-0.390695964189215,-0.4376788722922131,-0.4306089199078282,-0.6858349980661853,0.2638766467571259,-0.9128428101539612,-0.3115877509117126,-2.263916015625,-50.33822631835938,3.33172607421875,2
1596230433.129692,122,0,102765.3205457917,0.6857552926198104,0.6865963020406419,1.13874270013651,-0.4066477417945862,0.4684942364692688,0.01443354040384293,-0.1164243817329407,0.1001102924346924,-0.1604582667350769,2,-0.382786235319176,-0.4376615287473745,-0.4375340581036479,-0.6859234196613717,0.2654405534267426,-0.9081077575683594,-0.3238541781902313,-2.406700134277344,-50.39341735839844,2.52862548828125,2
1596230433.16477,123,0,102765.3506437917,0.6874548701023856,0.6981418369127315,1.130900048477068,-0.1695307344198227,0.1872684508562088,-0.2535043060779572,0.1230506002902985,0.05042755603790283,-0.242935836315155,2,-0.3767101203834077,-0.4415682745912906,-0.4399195414937224,-0.6852574217978865,0.2737315893173218,-0.9047958254814148,-0.3262138962745667,-2.147415161132812,-50.38856506347656,2.027313232421875,2
1596230433.189882,124,0,102765.3807407917,0.689958206476885,0.6896845565135725,1.124178469001133,-0.1064932569861412,-0.4341485798358917,0.03983559459447861,0.004844814538955688,-0.05011999607086182,-0.151029646396637,2,-0.3752963907642791,-0.4388074121878269,-0.4388502641646861,-0.6884845951006726,0.2748264372348785,-0.901913046836853,-0.3332013487815857,-2.165374755859375,-50.53092193603516,1.692901611328125,2
1596230433.224724,125,0,102765.4108387917,0.6900522374315612,0.6756958538401383,1.123412245049647,-0.03056730516254902,-0.5585896372795105,-0.1099759116768837,-0.1172145903110504,0.06078058481216431,-0.004392325878143311,2,-0.378025522062277,-0.4339593115095453,-0.4362112089047168,-0.691733748311385,0.2705706655979156,-0.901581883430481,-0.3375520408153534,-2.245246887207031,-50.51488494873047,1.60888671875,2
1596230433.250089,126,0,102765.4409354167,0.689802503494236,0.6659979889799611,1.120516563598874,-0.05407638475298882,-0.0498773381114006,-0.2478409260511398,-0.2210168838500977,-0.04524481296539307,-0.02531903982162476,2,-0.3790144996194058,-0.4303976888759681,-0.4341552956420324,-0.6947049632428959,0.2688965201377869,-0.9003253579139709,-0.3422116637229919,-2.12701416015625,-50.45323944091797,1.318267822265625,2
1596230433.2834,127,0,102765.4710324167,0.6739271971721532,0.6795334337637453,1.102835869129815,-0.49281245470047,0.1709796786308289,-0.5385134220123291,-0.2160837650299072,-0.02283668518066406,0.09861445426940918,2,-0.3723133150426371,-0.4312169723567036,-0.4302978680194661,-0.7001987374357483,0.2834638953208923,-0.8924900889396667,-0.3508694469928741,-1.382003784179688,-50.42134094238281,0.9803466796875,2
1596230433.310246,128,0,102765.5011304167,0.6681388776131125,0.7011266427748749,1.09076582313251,-0.2049596309661865,0.8605325818061829,-0.02322539687156677,0.1122232377529144,0.0003263950347900391,0.1123340129852295,2,-0.3639905323499862,-0.4371203469230703,-0.4315756329743861,-0.7001279020931661,0.2979014217853546,-0.8869808316230774,-0.3528733849525452,-0.9315643310546875,-50.39151000976562,0.584869384765625,2
1596230433.341597,129,0,102765.5312274167,0.6650890573012692,0.7289920704077454,1.07388710722059,-0.5020573139190674,0.4790704250335693,-0.6482530832290649,0.2261307239532471,0.0060768723487854,-0.00720369815826416,2,-0.3517294507258282,-0.4455445970681426,-0.4344349064390163,-0.699315788266481,0.3175456523895264,-0.8790601491928101,-0.3555528223514557,-0.469940185546875,-50.12349700927734,0.17877197265625,2
1596230433.370388,130,0,102765.5613244167,0.6592793414308048,0.7277607192726815,1.062453814546582,0.1413332670927048,-0.6041724681854248,0.05673655867576599,0.1851357817649841,0.07135605812072754,-0.193652331829071,2,-0.3486023518242694,-0.4435810020702856,-0.4314075784112325,-0.7039884295374428,0.3237724006175995,-0.8735524415969849,-0.3634245991706848,0.1134414672851562,-50.19593811035156,-0.12945556640625,2
1596230433.404382,131,0,102765.5914224167,0.654651097258577,0.7078798484649915,1.077733005729571,0.4283766448497772,-0.6947365403175354,0.2806550860404968,0.1041290163993835,0.06637001037597656,-0.07324022054672241,2,-0.3601540598126474,-0.4364471546946208,-0.427262893390107,-0.7051589183866334,0.3077682852745056,-0.8808870315551758,-0.3596058785915375,0.138671875,-50.16951751708984,0.08038330078125,2
1596230433.430668,132,0,102765.6215194167,0.6589015133159576,0.6898088844237391,1.083351990846882,-0.2026069164276123,-0.3592816293239594,0.1221565455198288,-0.1069831252098083,-0.003366291522979736,0.03118360042572021,2,-0.3653886223356795,-0.4311017698813781,-0.4258280564007422,-0.706620634030903,0.2980653643608093,-0.8835327625274658,-0.3612848520278931,-0.3765106201171875,-50.14488983154297,0.41973876953125,2
1596230433.464366,133,0,102765.6516174167,0.6784896390098053,0.6659295116661299,1.080023942488695,-0.2091442793607712,0.009529734030365944,0.2240238338708878,-0.2073078155517578,-0.0640331506729126,0.01805174350738525,2,-0.3649251777142232,-0.4260576590416308,-0.4282151994155968,-0.7084744930274607,0.2911689579486847,-0.8819690942764282,-0.3706089854240417,-0.49365234375,-50.39463043212891,0.141143798828125,2
1596230433.493082,134,0,102765.6817144167,0.6893986836043693,0.6615144774635119,1.081526495792996,0.03926102072000504,0.2640507519245148,0.05669074133038521,-0.08137732744216919,0.0494614839553833,0.01252281665802002,2,-0.3641646266224251,-0.4265697465595132,-0.4313451162101384,-0.7066566442450417,0.2887154221534729,-0.8826762437820435,-0.3708447515964508,-0.820709228515625,-50.28548431396484,-0.0474853515625,2
1596230433.525434,135,0,102765.7118114167,0.6889645519851418,0.6692279356867309,1.081241617193521,-0.1257671713829041,0.1341282874345779,0.009596491232514381,0.06625431776046753,-0.003484725952148438,0.02839845418930054,2,-0.3624748141619633,-0.4291969469890733,-0.4325789671435398,-0.705178914897918,0.2917233109474182,-0.8825423121452332,-0.3688039779663086,-0.8286361694335938,-50.20079040527344,-0.062957763671875,2
1596230433.551388,136,0,102765.7419094167,0.7055220446606256,0.6558626521132774,1.078258654010698,-0.2791232168674469,0.01085463352501392,0.228665292263031,-0.02568602561950684,-0.05161744356155396,0.0009827613830566406,2,-0.3606089615619651,-0.4272983704977639,-0.4358579465476318,-0.7052694163638691,0.2883723676204681,-0.8811357021331787,-0.3747545480728149,-0.96600341796875,-50.20133972167969,-0.47222900390625,2
1596230433.586104,137,0,102765.7720064167,0.7188934231967242,0.6466679412442132,1.075004807732979,-0.1271204501390457,0.1397000700235367,-0.08916193246841431,-0.04817688465118408,0.08578026294708252,-0.04996711015701294,2,-0.3584327473752655,-0.4262484412182249,-0.438776760675856,-0.7052042827523923,0.2866405248641968,-0.8795924186706543,-0.3796764612197876,-0.9104690551757812,-50.43058776855469,-0.612762451171875,2
1596230433.61126,138,0,102765.8021044167,0.711586807802625,0.6572161606954071,1.071443672673797,0.04736218601465225,0.06554721295833588,-0.144310861825943,0.09420311450958252,0.00710749626159668,-0.01015210151672363,2,-0.3562219845946216,-0.428428766540271,-0.437927194030086,-0.7055312961150455,0.2925412058830261,-0.8778927326202393,-0.3791093826293945,-0.9873504638671875,-50.12653350830078,-0.695587158203125,2
1596230433.642518,139,0,102765.8322014167,0.7090602317487887,0.6582799007846114,1.070571883641232,-0.06559797376394272,-0.08895394951105118,0.03386930376291275,0.08332550525665283,-0.02343684434890747,0.04806822538375854,2,-0.3561727850359426,-0.4282981479436015,-0.437184659706809,-0.7060957448407166,0.293412446975708,-0.8774749636650085,-0.379403293132782,-0.8078842163085938,-50.28090667724609,-0.685272216796875,2
1596230433.671415,140,0,102765.8622984167,0.7171522605545126,0.6499652451335397,1.070150958954412,-0.05560244619846344,-0.008474310860037804,0.1095393896102905,0.0845368504524231,0.01229262351989746,0.001555204391479492,2,-0.3560906136243941,-0.4267758416685112,-0.4385422438070495,-0.7062170184658907,0.2904711663722992,-0.8772729635238647,-0.3821237087249756,-0.9983901977539062,-50.31671905517578,-0.749359130859375,2
1596230433.703901,141,0,102765.8923964167,0.7199462946896233,0.6466365285218109,1.070798090154994,0.03981836512684822,-0.1029751822352409,-0.02447278052568436,-0.01221394538879395,0.03032273054122925,-0.02139419317245483,2,-0.3564905429731536,-0.4261418481646539,-0.4389638124790178,-0.7061361325822948,0.2888554036617279,-0.877583384513855,-0.382635235786438,-0.847442626953125,-50.43292236328125,-0.94573974609375,2
1596230433.731619,142,0,102765.9224934167,0.71221104497842,0.6481988964055458,1.071007888396117,0.06868983805179596,-0.2215906083583832,-0.1336078494787216,-0.03428280353546143,-0.01048415899276733,-0.01701140403747559,2,-0.357881242528335,-0.4253265759246474,-0.436518370542447,-0.707438924383598,0.2893416881561279,-0.8776839971542358,-0.3820366263389587,-0.9336395263671875,-49.96039581298828,-0.7197265625,2
1596230433.766427,143,0,102765.9525914167,0.7033173976529248,0.6502609309027004,1.069304161601003,0.006025122478604317,-0.120127372443676,-0.1430844366550446,-0.05095154047012329,-0.001440823078155518,0.00511932373046875,2,-0.3586223436413343,-0.4243530651438964,-0.4336608424276849,-0.7094030763113961,0.2910338044166565,-0.8768662214279175,-0.3826289772987366,-0.6794662475585938,-50.13827514648438,-0.592010498046875,2
1596230433.79299,144,0,102765.9826884167,0.6971570934964859,0.6544176279141927,1.065990140537131,-0.02863953821361065,-0.01959087699651718,-0.1450550854206085,-0.06037968397140503,0.007819175720214844,0.01434206962585449,2,-0.3576680795805552,-0.424516020560385,-0.4320626755642215,-0.7107611780572892,0.2943889498710632,-0.8752682209014893,-0.3837193846702576,-0.3668365478515625,-50.23005676269531,-0.84429931640625,2
1596230433.826745,145,0,102766.0127854167,0.6926977050660746,0.658577581701732,1.063324231515226,-0.01061566919088364,0.03951061889529228,-0.06600521504878998,-0.02431792020797729,-0.002279996871948242,0.02023082971572876,2,-0.3566210422065365,-0.4250338170059601,-0.4310898239392605,-0.711568046470529,0.2974095642566681,-0.8739757537841797,-0.3843353688716888,-0.2791213989257812,-50.50543975830078,-0.99200439453125,2
1596230433.852065,146,0,102766.0428834167,0.691132860940593,0.6611919959570819,1.062528942002349,0.008067723363637924,0.02804164588451385,-0.03019915893673897,0.02534902095794678,-0.001451194286346436,0.01976829767227173,2,-0.3560631642178105,-0.4256366488485469,-0.4309590831732799,-0.7115662494636729,0.2988400459289551,-0.873589038848877,-0.3841049373149872,-0.2565765380859375,-50.18158721923828,-0.86224365234375,2
1596230433.88625,147,0,102766.0729804167,0.6894959428444156,0.6598192531765362,1.0655432848721,0.1083958521485329,-0.06883145123720169,0.09279502183198929,0.02601057291030884,0.02066177129745483,-0.01885342597961426,2,-0.3579469419956538,-0.4250385314426149,-0.4302833915501761,-0.7113875289827943,0.2966969609260559,-0.8750520348548889,-0.3824324607849121,-0.2174911499023438,-50.17533111572266,-0.765289306640625,2
1596230433.913015,148,0,102766.1030784167,0.6958210275804739,0.6562197575155554,1.065047707223385,-0.2243891656398773,0.1729389280080795,0.06362050026655197,0.01918983459472656,0.003038525581359863,0.04596012830734253,2,-0.3571750271728463,-0.4248590300200141,-0.4318644135200324,-0.7109246324792441,0.2955831289291382,-0.8748120665550232,-0.3838416039943695,-0.2936859130859375,-50.40586853027344,-0.723175048828125,2
1596230433.944141,149,0,102766.1331754167,0.7078116755057533,0.653703905093623,1.061883345492646,-0.1750659793615341,0.2114365994930267,0.1028678342700005,0.02287465333938599,0.01402288675308228,0.0003998875617980957,2,-0.3538690304394128,-0.4258954610913387,-0.4355250603893691,-0.7097235328397609,0.2962984144687653,-0.8732746243476868,-0.3867795169353485,-0.4444503784179688,-50.24024963378906,-1.023834228515625,2
