loggingTime,loggingSample,identifierForVendor,accelerometerTimestamp_sinceReboot,accelerometerAccelerationX,accelerometerAccelerationY,accelerometerAccelerationZ,gyroTimestamp_sinceReboot,gyroRotationX,gyroRotationY,gyroRotationZ
1595965244.476081,1,0,566615.8737065417,-0.444854736328125,-0.8852996826171875,-0.207183837890625,566615.8536395417,-0.07922584563493729,0.1102759093046188,0.03386582061648369
1595965244.502862,2,0,566615.9038065417,-0.4385528564453125,-0.8378143310546875,-0.2392578125,566615.8837395418,-0.03079679422080517,0.01066569332033396,0.002295644953846931
1595965244.531962,3,0,566615.9339075417,-0.430908203125,-0.873046875,-0.23248291015625,566615.9138405417,0.0810631588101387,0.004720453172922134,-0.08941216766834259
1595965244.563313,4,0,566615.9640075417,-0.4222869873046875,-0.8888397216796875,-0.190765380859375,566615.9439405417,0.04807298630475998,-0.09067477285861969,-0.06890955567359924
1595965244.590813,5,0,566615.9941085418,-0.4121856689453125,-0.8861541748046875,-0.1973114013671875,566615.9740415417,-0.01265187934041023,-0.1180054694414139,-0.0865495353937149
1595965244.623185,6,0,566616.0242085417,-0.4483642578125,-0.886016845703125,-0.2510528564453125,566616.0041415417,-0.06252596527338028,-0.09516539424657822,-0.03495292365550995
1595965244.650994,7,0,566616.0543095417,-0.4423675537109375,-0.8838958740234375,-0.2506103515625,566616.0342425416,0.01253576576709747,-0.009804960340261459,0.01573475450277328
1595965244.685954,8,0,566616.0844095417,-0.3842620849609375,-0.9010009765625,-0.18841552734375,566616.0643425417,-0.0246901661157608,-0.1311223357915878,0.2723487019538879
1595965244.711194,9,0,566616.1145105417,-0.4642333984375,-0.886077880859375,-0.2265625,566616.0944435417,0.1637415289878845,0.1766948848962784,-0.2131444960832596
1595965244.741347,10,0,566616.1446105418,-0.391082763671875,-0.932037353515625,-0.1880645751953125,566616.1245435417,0.03720808774232864,-0.1249999925494194,-0.2689401209354401
1595965244.771446,11,0,566616.1747116251,-0.464263916015625,-0.8454132080078125,-0.2325592041015625,566616.154644625,0.02839382365345955,0.1078042238950729,0.1227741241455078
1595965244.803562,12,0,566616.2048116251,-0.331512451171875,-0.9167327880859375,-0.188568115234375,566616.184744625,0.06386899203062057,0.08441661298274994,-0.1456980854272842
1595965244.832132,13,0,566616.234912625,-0.330657958984375,-0.9058074951171875,-0.1739654541015625,566616.214845625,0.08030682057142258,-0.02737330086529255,0.01560186315327883
1595965244.864319,14,0,566616.265012625,-0.3649444580078125,-0.87274169921875,-0.243988037109375,566616.2449456251,0.03287885338068008,-0.1273038983345032,0.08041707426309586
1595965244.891753,15,0,566616.295113625,-0.369964599609375,-0.8932037353515625,-0.21636962890625,566616.2750466251,0.1511532962322235,-0.1719278246164322,0.08375215530395508
1595965244.924133,16,0,566616.325213625,-0.45233154296875,-0.899993896484375,-0.2024993896484375,566616.305146625,0.03514759987592697,-0.2417401969432831,0.1344403624534607
1595965244.952264,17,0,566616.3553146251,-0.5028076171875,-0.8384246826171875,-0.200531005859375,566616.335247625,0.0297499056905508,-0.3921350240707397,0.01347026880830526
1595965244.982798,18,0,566616.3854146251,-0.5217132568359375,-0.881500244140625,-0.2239532470703125,566616.365347625,0.1318858563899994,-0.1689115166664124,-0.003595800139009953
1595965245.012198,19,0,566616.415514625,-0.411590576171875,-0.8761444091796875,-0.2447052001953125,566616.3954476251,0.2192396819591522,0.07244650274515152,-0.02215110883116722
1595965245.043031,20,0,566616.445615625,-0.2997283935546875,-0.9031524658203125,-0.1645355224609375,566616.4255486251,0.2718093991279602,0.008415056392550468,0.007327953819185495
1595965245.072461,21,0,566616.475715625,-0.2988128662109375,-0.9092559814453125,-0.0929718017578125,566616.455648625,0.2041281014680862,-0.2300313413143158,0.05006077140569687
1595965245.103746,22,0,566616.5058166251,-0.391815185546875,-0.8878631591796875,-0.1038818359375,566616.485749625,0.187481477856636,-0.2748022675514221,0.1863168776035309
1595965245.132543,23,0,566616.5359166251,-0.4225921630859375,-0.8767242431640625,-0.14324951171875,566616.515849625,0.1674872636795044,-0.09906107187271118,0.2042146474123001
1595965245.164237,24,0,566616.566017625,-0.474822998046875,-0.8708038330078125,-0.1336212158203125,566616.5459506251,0.1458690613508224,-0.2193102538585663,0.2145093679428101
1595965245.192724,25,0,566616.596117625,-0.4685821533203125,-0.8601226806640625,-0.2060546875,566616.5760506251,0.2344780117273331,-0.1329713612794876,0.1869139522314072
1595965245.223839,26,0,566616.626218625,-0.504180908203125,-0.861724853515625,-0.1784210205078125,566616.606151625,0.3345947563648224,0.05431889742612839,0.1756988614797592
1595965245.252961,27,0,566616.6563186251,-0.5203399658203125,-0.8822479248046875,-0.073516845703125,566616.636251625,0.3837212920188904,0.01948102377355099,0.1251264959573746
1595965245.285598,28,0,566616.6864196251,-0.5635986328125,-0.9137725830078125,0.0070343017578125,566616.666352625,0.3003909885883331,0.08208554983139038,0.09246441721916199
1595965245.318351,29,0,566616.716519625,-0.557891845703125,-0.86737060546875,-0.0484619140625,566616.696452625,0.204591229557991,0.1617622673511505,0.09663359820842743
1595965245.344091,30,0,566616.746620625,-0.4402618408203125,-0.862091064453125,-0.0437469482421875,566616.7265536251,0.2037989348173141,0.327180802822113,0.1044662222266197
1595965245.373425,31,0,566616.776720625,-0.4912567138671875,-0.93585205078125,-0.0625,566616.7566536251,0.2195155769586563,0.341835618019104,0.04662476107478142
1595965245.403756,32,0,566616.8068206251,-0.3691558837890625,-0.859039306640625,0.0050811767578125,566616.786753625,0.04909244552254677,0.1049378663301468,0.1001652181148529
1595965245.433782,33,0,566616.8369216251,-0.369293212890625,-0.97601318359375,0.049591064453125,566616.816854625,0.05495939031243324,0.03549328073859215,0.2378362566232681
1595965245.464125,34,0,566616.867021625,-0.3811187744140625,-0.8729705810546875,0.015350341796875,566616.846954625,-0.2523707449436188,-0.01200419850647449,0.3575530648231506
1595965245.493833,35,0,566616.897122625,-0.3395538330078125,-0.8940887451171875,-0.006134033203125,566616.8770556251,-0.3256111145019531,-0.257997989654541,0.5042793750762939
1595965245.524051,36,0,566616.927222625,-0.329742431640625,-0.981842041015625,0.1056060791015625,566616.9071556251,-0.5009301900863647,-0.317099928855896,0.5058392286300659
1595965245.554036,37,0,566616.957323625,-0.366119384765625,-0.774932861328125,0.0153045654296875,566616.937256625,-0.9378183484077454,-0.7242461442947388,0.8583946228027344
1595965245.585457,38,0,566616.9874236251,-0.3504486083984375,-0.837554931640625,0.2471466064453125,566616.967356625,-0.5619744062423706,-1.055279135704041,0.7926624417304993
1595965245.618361,39,0,566617.0175246251,-0.4696502685546875,-0.9043426513671875,-0.0817108154296875,566616.997457625,-1.173661470413208,-0.4006912112236023,0.9876026511192322
1595965245.66043,40,0,566617.047624625,-0.627227783203125,-0.8391265869140625,-0.1398162841796875,566617.0275576251,-1.372918963432312,-0.9120991230010986,1.250926494598389
1595965245.674394,41,0,566617.077725625,-0.7395477294921875,-0.9264984130859375,-0.2906951904296875,566617.0576586251,-2.435499429702759,-2.143399715423584,1.681774973869324
1595965245.720822,42,0,566617.107825625,-0.638580322265625,-1.24078369140625,-0.2707977294921875,566617.087758625,-2.499754905700684,-2.919384479522705,1.495538830757141
1595965245.734666,43,0,566617.1379266251,-0.2641448974609375,-0.9783172607421875,-0.3361358642578125,566617.117859625,-3.627471923828125,-3.894729852676392,1.896366119384766
1595965245.782251,44,0,566617.1680267501,-0.16680908203125,-0.42706298828125,0.0829925537109375,566617.147959625,-4.631309509277344,-6.833824634552002,2.471633911132812
1595965245.794804,45,0,566617.1981267501,-0.3202056884765625,-0.0533447265625,0.546142578125,566617.17806075,-4.504228591918945,-8.335238456726074,2.431067943572998
1595965245.839758,46,0,566617.22822775,-1.281890869140625,0.518096923828125,1.084732055664062,566617.20816075,-4.209256172180176,-8.08342170715332,2.03796648979187
1595965245.855098,47,0,566617.25832775,-2.72247314453125,0.6906280517578125,0.967041015625,566617.2382607501,-1.90922224521637,-4.634823799133301,1.215154886245728
1595965245.88543,48,0,566617.28842875,-1.441741943359375,-0.253448486328125,0.8259735107421875,566617.2683617501,2.751402854919434,3.656874656677246,-1.736334919929504
1595965245.915593,49,0,566617.31852875,-0.4864959716796875,-0.6686248779296875,0.1700592041015625,566617.29846175,2.424939393997192,5.162388801574707,-1.284770965576172
1595965245.959798,50,0,566617.3486297501,0.155731201171875,-0.909088134765625,-0.4046478271484375,566617.32856275,-0.0284151304513216,1.291708469390869,-0.3733767867088318
1595965245.975419,51,0,566617.3787297501,-0.3635711669921875,-0.6378936767578125,0.4387664794921875,566617.35866275,-0.8134822845458984,-3.473464012145996,0.1667996346950531
1595965246.017862,52,0,566617.40883075,-1.493484497070312,-0.4453582763671875,0.74554443359375,566617.3887637501,-0.5172644257545471,-2.804860830307007,0.3755539059638977
1595965246.035619,53,0,566617.43893075,-1.324020385742188,-0.3625640869140625,0.587738037109375,566617.4188637501,-0.2966649532318115,-0.2434661835432053,-0.0983731746673584
1595965246.08203,54,0,566617.46903175,-0.622314453125,-0.4983673095703125,0.275543212890625,566617.44896475,0.5927820801734924,1.773063659667969,-0.5174945592880249
1595965246.096381,55,0,566617.4991317501,-0.225616455078125,-0.6792144775390625,0.11651611328125,566617.47906475,-0.09594250470399857,0.8910686373710632,-0.3450511395931244
1595965246.138765,56,0,566617.5292327501,-0.6456146240234375,-0.49810791015625,0.193206787109375,566617.50916575,-0.2452185451984406,-0.4524731934070587,0.1574008017778397
1595965246.15638,57,0,566617.55933275,-0.958831787109375,-0.249267578125,0.3645782470703125,566617.5392657501,-0.3919246196746826,-1.018034815788269,0.6065834164619446
1595965246.200467,58,0,566617.58943275,-0.9319305419921875,-0.3763580322265625,0.3946380615234375,566617.5693667501,0.07439753413200378,0.1274234652519226,0.06833218783140182
1595965246.216202,59,0,566617.61953375,-0.7783050537109375,-0.5446319580078125,0.1608734130859375,566617.59946675,-0.04872306436300278,0.4048862457275391,0.05283418670296669
1595965246.261937,60,0,566617.6496337501,-0.64111328125,-0.5166015625,0.201019287109375,566617.62956675,-0.1272895187139511,-0.1068982183933258,0.2448595464229584
1595965246.276457,61,0,566617.6797347501,-0.9074554443359375,-0.5025482177734375,0.3974151611328125,566617.65966775,-0.2154872864484787,-0.7889494895935059,0.3266803920269012
1595965246.323499,62,0,566617.70983475,-1.228988647460938,-0.5029296875,0.3400421142578125,566617.68976775,0.04148778691887856,-0.2047547399997711,0.209804356098175
1595965246.336679,63,0,566617.73993575,-1.052337646484375,-0.5818939208984375,0.1193389892578125,566617.7198687501,-0.003800064558163285,0.6091086268424988,-0.04937873408198357
1595965246.382644,64,0,566617.77003575,-0.8027496337890625,-0.5200653076171875,0.181854248046875,566617.7499687501,0.002554770326241851,0.4354686439037323,-0.1912360042333603
1595965246.396685,65,0,566617.80013675,-0.9342041015625,-0.443389892578125,0.23370361328125,566617.78006975,-0.0063196811825037,0.1812968254089355,-0.09958011656999588
1595965246.441686,66,0,566617.8302367501,-0.963836669921875,-0.408966064453125,0.29150390625,566617.81016975,0.02201342396438122,0.3922407627105713,-0.2225396037101746
1595965246.457126,67,0,566617.8603377501,-0.861083984375,-0.2876129150390625,0.3360443115234375,566617.84027075,0.02938878163695335,0.4676375091075897,-0.2977283596992493
1595965246.503967,68,0,566617.89043775,-0.7336883544921875,-0.295257568359375,0.327423095703125,566617.8703707501,0.06511082500219345,0.4982105791568756,-0.2967829406261444
1595965246.517301,69,0,566617.92053775,-0.6982574462890625,-0.614959716796875,0.2711334228515625,566617.9004707501,0.0161811001598835,0.4934613704681396,-0.4861619174480438
1595965246.564262,70,0,566617.95063875,-0.698577880859375,-0.632904052734375,0.136566162109375,566617.93057175,-0.08096489310264587,0.4472408890724182,-0.2513033449649811
1595965246.577466,71,0,566617.9807387501,-1.009811401367188,-0.4664764404296875,-0.0233154296875,566617.96067175,-0.1022720411419868,0.3258998095989227,0.07642153650522232
1595965246.622767,72,0,566618.0108397501,-1.07305908203125,-0.2813873291015625,0.049224853515625,566617.99077275,-0.1339527368545532,0.2786057889461517,-0.09129182994365692
1595965246.637586,73,0,566618.04093975,-0.7820892333984375,-0.4644622802734375,0.2211151123046875,566618.0208727501,0.2167682647705078,1.048546433448792,-0.4032891392707825
1595965246.681817,74,0,566618.07104075,-0.6181488037109375,-0.6970062255859375,0.2892303466796875,566618.0509737501,0.2308835536241531,1.094475269317627,-0.2630337476730347
1595965246.697848,75,0,566618.10114075,-0.538818359375,-0.8243255615234375,0.174285888671875,566618.08107375,0.219495877623558,0.7377467751502991,-0.1433531641960144
1595965246.742231,76,0,566618.1312417501,-0.7923431396484375,-0.42169189453125,0.1428070068359375,566618.11117475,-0.419390082359314,0.0678432285785675,0.1247653663158417
1595965246.758144,77,0,566618.1613414166,-1.1929931640625,-0.1372528076171875,0.2581787109375,566618.14127475,-0.2852256298065186,-0.3226203918457031,0.4687461853027344
1595965246.802867,78,0,566618.1914424167,-0.98974609375,-0.5260467529296875,0.0755615234375,566618.1713754167,0.09085454046726227,0.6090087294578552,-0.374218612909317
1595965246.818261,79,0,566618.2215424167,-0.686981201171875,-0.925384521484375,-0.0206756591796875,566618.2014754167,0.4958864450454712,1.113966941833496,-0.5734861493110657
1595965246.863379,80,0,566618.2516434167,-0.868255615234375,-0.4575958251953125,-0.1082763671875,566618.2315764168,0.3655787706375122,1.193594455718994,0.1492845565080643
1595965246.87857,81,0,566618.2817434167,-0.7346954345703125,-0.5067596435546875,-0.023040771484375,566618.2616764167,0.2131924331188202,0.7844061255455017,-0.0005217132274992764
1595965246.925905,82,0,566618.3118444167,-0.6381683349609375,-0.546661376953125,0.0470428466796875,566618.2917774167,-0.145065039396286,0.02798476256430149,-0.2582786977291107
1595965246.938918,83,0,566618.3419444168,-1.037673950195312,-0.315521240234375,0.0589752197265625,566618.3218774167,-0.05052096396684647,-0.09732495248317719,0.1945881247520447
1595965246.980982,84,0,566618.3720444167,-1.003631591796875,-0.5782928466796875,0.0066680908203125,566618.3519774167,0.241672545671463,0.4742075204849243,-0.1111089438199997
1595965246.998886,85,0,566618.4021454167,-0.5957794189453125,-0.7713165283203125,0.0054779052734375,566618.3820784166,0.121265709400177,0.6893323659896851,-0.3112124800682068
1595965247.04205,86,0,566618.4322454167,-0.6031951904296875,-0.674896240234375,-0.0144500732421875,566618.4121784167,-0.1812992244958878,0.07514721155166626,0.1262932270765305
1595965247.061241,87,0,566618.4623464167,-0.955322265625,-0.555938720703125,-0.000244140625,566618.4422794167,-0.07800425589084625,-0.2392392158508301,0.1932879686355591
1595965247.105213,88,0,566618.4924464168,-0.9959259033203125,-0.451568603515625,0.031005859375,566618.4723794167,-0.1343881636857986,-0.06472919136285782,0.06902620196342468
1595965247.119491,89,0,566618.5225474167,-0.947174072265625,-0.3296661376953125,0.076263427734375,566618.5024804167,-0.1880157142877579,0.3160999119281769,0.05842016637325287
1595965247.159974,90,0,566618.5526474167,-0.88323974609375,-0.3543243408203125,0.05633544921875,566618.5325804166,0.0184855330735445,0.1739901751279831,-0.09974417090415955
1595965247.179547,91,0,566618.5827484167,-0.832489013671875,-0.6519317626953125,-0.0018310546875,566618.5626814167,0.1118655502796173,0.2812529802322388,-0.3801534473896027
1595965247.218765,92,0,566618.6128484167,-0.7578277587890625,-0.640838623046875,-0.0040283203125,566618.5927814167,-0.03424904868006706,0.2767037749290466,-0.1669466495513916
1595965247.239864,93,0,566618.6429494167,-0.679443359375,-0.61505126953125,-0.0682525634765625,566618.6228824167,-0.1333724409341812,0.1679184287786484,-0.01594274677336216
1595965247.281803,94,0,566618.6730494167,-0.718414306640625,-0.671173095703125,-0.08123779296875,566618.6529824167,-0.03028040751814842,0.01381541416049004,-0.05548349767923355
1595965247.299919,95,0,566618.7031504167,-0.630157470703125,-0.676666259765625,-0.0497589111328125,566618.6830834167,-0.1451635807752609,-0.2164856940507889,0.1426905691623688
1595965247.34325,96,0,566618.7332504167,-1.022750854492188,-0.302581787109375,-0.05572509765625,566618.7131834168,-0.3054651021957397,-0.7388160228729248,-0.1700367033481598
1595965247.360359,97,0,566618.7633514167,-1.022201538085938,-0.48370361328125,0.0528564453125,566618.7432844167,-0.02767370641231537,-0.8305933475494385,-0.04885648936033249
1595965247.399543,98,0,566618.7934514167,-0.8510894775390625,-0.627349853515625,-0.0050811767578125,566618.7733844167,0.07482284307479858,0.5776494741439819,0.06051234528422356
1595965247.42052,99,0,566618.8235514167,-0.7794342041015625,-0.5908355712890625,-0.0418243408203125,566618.8034844167,-0.06541921943426132,0.5232879519462585,0.1097392812371254
1595965247.458938,100,0,566618.8536524167,-0.9436492919921875,-0.5673370361328125,-0.0693817138671875,566618.8335854167,-0.02005759812891483,0.3475281298160553,0.3002405166625977
1595965247.482787,101,0,566618.8837524167,-0.866302490234375,-0.598602294921875,-0.077056884765625,566618.8636854168,0.1108365058898926,0.6218989491462708,-0.07530993223190308
1595965247.523132,102,0,566618.9138534167,-0.802947998046875,-0.5801239013671875,-0.06549072265625,566618.8937864167,0.02316657267510891,0.5895264148712158,-0.0329132080078125
1595965247.540648,103,0,566618.9439534167,-0.7908935546875,-0.5381011962890625,-0.019866943359375,566618.9238864167,-0.02976934798061848,0.1346955001354218,-0.01189048122614622
1595965247.578875,104,0,566618.9740544168,-0.8401641845703125,-0.4729766845703125,0.031005859375,566618.9539874167,-0.06792312115430832,0.02037238329648972,-0.01470996998250484
1595965247.600958,105,0,566619.0041544167,-0.8409576416015625,-0.4481048583984375,-0.0196075439453125,566618.9840874167,0.006127134896814823,0.07097430527210236,-0.1138906180858612
1595965247.639632,106,0,566619.0342554167,-0.8561553955078125,-0.5995635986328125,-0.06280517578125,566619.0141884167,0.03735402971506119,0.06539498269557953,-0.03984461724758148
1595965247.661187,107,0,566619.0643554167,-0.808746337890625,-0.595367431640625,-0.1160736083984375,566619.0442884167,0.2059406489133835,0.09155468642711639,-0.214775413274765
1595965247.70179,108,0,566619.0944564167,-0.7647247314453125,-0.51446533203125,-0.1046600341796875,566619.0743894167,0.08962868899106979,0.09054294973611832,-0.08734235912561417
1595965247.721471,109,0,566619.1245564166,-0.794708251953125,-0.592559814453125,-0.0094757080078125,566619.1044894167,0.06764029711484909,-0.07940267771482468,-0.04316877573728561
1595965247.758876,110,0,566619.1546574167,-0.858856201171875,-0.4971466064453125,-0.0205078125,566619.1345904167,-0.1586567610502243,-0.09883975982666016,0.03402933850884438
