loggingTime,loggingSample,identifierForVendor,accelerometerTimestamp_sinceReboot,accelerometerAccelerationX,accelerometerAccelerationY,accelerometerAccelerationZ,gyroTimestamp_sinceReboot,gyroRotationX,gyroRotationY,gyroRotationZ
1596059341.568473,1,0,9794.564428666667,0.0626678466796875,-0.9441070556640625,-0.2536773681640625,9794.555646666668,0.02077372185885906,-0.07470566034317017,0.01245054416358471
1596059341.599775,2,0,9794.594523666667,-0.0036163330078125,-0.9604949951171875,-0.311859130859375,9794.585741666668,-0.02438896335661411,-0.07895713299512863,-0.04310832172632217
1596059341.628868,3,0,9794.624618666667,0.0633392333984375,-0.953216552734375,-0.3418426513671875,9794.615836666668,0.02488351240754128,-0.06525543332099915,-0.04945516586303711
1596059341.660422,4,0,9794.654713666667,-0.04791259765625,-0.938568115234375,-0.3515472412109375,9794.645932666668,0.08501848578453064,-0.06848664581775665,-0.03707919269800186
1596059341.690637,5,0,9794.684809666667,-0.1098480224609375,-0.9573974609375,-0.3132476806640625,9794.676027666666,0.1411227732896805,0.05720656365156174,-0.02872964926064014
1596059341.720149,6,0,9794.714904666667,0.0053863525390625,-0.9532318115234375,-0.2496795654296875,9794.706122666666,0.111196294426918,0.05629310011863708,-0.2978532612323761
1596059341.748979,7,0,9794.744999666667,0.129669189453125,-0.9714202880859375,-0.2548675537109375,9794.736218666667,0.1395099610090256,0.04211469739675522,-0.1849578619003296
1596059341.779862,8,0,9794.775095666668,0.084869384765625,-0.95611572265625,-0.241424560546875,9794.766313666667,0.1689306944608688,-0.08768058568239212,-0.150298684835434
1596059341.809255,9,0,9794.805190666668,0.0693359375,-0.9797515869140625,-0.2654266357421875,9794.796408666667,0.1387746632099152,-0.04917260631918907,-0.1793372631072998
1596059341.840399,10,0,9794.835285666668,0.1446533203125,-0.9668121337890625,-0.19842529296875,9794.826504666667,0.2022074311971664,0.1426423639059067,-0.160626694560051
1596059341.86936,11,0,9794.865381666667,0.182769775390625,-0.9999847412109375,-0.3047637939453125,9794.856599666668,0.1544761210680008,-0.01274908427149057,-0.1024323627352715
1596059341.917183,12,0,9794.895476666667,0.0457611083984375,-0.9382781982421875,-0.222442626953125,9794.886694666668,0.2298278659582138,-0.1805561929941177,-0.007156712934374809
1596059341.929617,13,0,9794.925571666667,0.0293731689453125,-0.9925537109375,-0.2509765625,9794.916790666668,0.2136771231889725,-0.01095704361796379,-0.1250724345445633
1596059341.96104,14,0,9794.955667666667,0.12518310546875,-0.9619293212890625,-0.3521270751953125,9794.946885666668,0.2942332327365875,-0.135146901011467,-0.1408391445875168
1596059341.990972,15,0,9794.985762666667,0.105224609375,-0.9218902587890625,-0.3427581787109375,9794.976980666668,0.3592812120914459,-0.5765330791473389,-0.1274200081825256
1596059342.020004,16,0,9795.015857666667,-0.1218414306640625,-1.016876220703125,-0.0152587890625,9795.007076666667,0.3024251163005829,-0.1460834443569183,-0.05615541338920593
1596059342.049942,17,0,9795.045953666668,-0.0194091796875,-0.948822021484375,0.0625152587890625,9795.037171666667,0.2372423708438873,0.5477033257484436,-0.2900057137012482
1596059342.095169,18,0,9795.076048666668,0.2373809814453125,-1.010116577148438,-0.1586456298828125,9795.067266666667,0.04899177700281143,0.6201663017272949,-0.2845763266086578
1596059342.110254,19,0,9795.106143666668,0.232696533203125,-0.9715728759765625,-0.2380523681640625,9795.097362666667,0.1382532119750977,0.4439819753170013,0.02318707853555679
1596059342.156494,20,0,9795.136239666666,0.0974884033203125,-0.9955596923828125,-0.1947479248046875,9795.127457666667,0.1581174582242966,0.2989645898342133,-0.01710708066821098
1596059342.170345,21,0,9795.166334666666,0.15313720703125,-0.9866485595703125,-0.142364501953125,9795.157552666667,0.1095195710659027,0.3536430299282074,-0.04273068532347679
1596059342.217405,22,0,9795.196429666667,0.1412811279296875,-0.9669342041015625,-0.1998291015625,9795.187648666668,0.1297987401485443,0.3391271829605103,0.0807795375585556
1596059342.230685,23,0,9795.226525666667,0.1532135009765625,-0.979339599609375,-0.1799774169921875,9795.217743666668,0.1643633842468262,0.1923846304416656,0.00675297761335969
1596059342.277883,24,0,9795.256620666667,0.17138671875,-0.9994659423828125,-0.118865966796875,9795.247838666668,0.1414767056703568,0.1749329268932343,0.07378234714269638
1596059342.290691,25,0,9795.286715666667,0.1346588134765625,-0.9854278564453125,-0.1316070556640625,9795.277934666667,0.09450732916593552,0.1113736629486084,0.1119667515158653
1596059342.340737,26,0,9795.316811666667,0.1112060546875,-0.9700775146484375,-0.151397705078125,9795.308029666667,0.1160951778292656,0.05411623045802116,0.1338009387254715
1596059342.3509,27,0,9795.346906666668,0.133819580078125,-0.9626312255859375,-0.1097564697265625,9795.338124666667,0.1003990396857262,0.1160033047199249,0.1412535309791565
1596059342.398221,28,0,9795.377001666668,-0.0133209228515625,-1.005996704101562,-0.1488037109375,9795.368220666667,0.109273225069046,0.04379808157682419,0.1754581034183502
1596059342.411172,29,0,9795.407097666668,0.0333404541015625,-0.9708709716796875,-0.12200927734375,9795.398315666667,0.09878356754779816,-0.02926787361502647,-0.0546448677778244
1596059342.459026,30,0,9795.437192666668,0.20770263671875,-0.9697113037109375,-0.1128997802734375,9795.428410666667,0.1283979266881943,0.01624634861946106,-0.03785550221800804
1596059342.47137,31,0,9795.467287666666,0.17340087890625,-1.029617309570312,-0.075042724609375,9795.458506666668,0.1212976649403572,-0.1510017663240433,0.1174248978495598
1596059342.518979,32,0,9795.497383041667,0.08349609375,-0.9833221435546875,-0.088104248046875,9795.488601041667,-0.01007766742259264,-0.2886981070041656,0.1119113564491272
1596059342.531592,33,0,9795.527478041668,0.080352783203125,-0.9862518310546875,-0.09405517578125,9795.518696041667,0.03663870319724083,-0.0235881507396698,0.1327455341815948
1596059342.578542,34,0,9795.557573041668,-0.00421142578125,-1.00006103515625,-0.13543701171875,9795.548792041667,-0.02713974192738533,0.1088282093405724,0.1592660844326019
1596059342.591674,35,0,9795.587669041668,0.0190582275390625,-0.9908294677734375,-0.124755859375,9795.578887041667,0.01125398650765419,0.1463878452777863,0.03111211210489273
1596059342.638255,36,0,9795.617764041668,0.0853271484375,-0.9983367919921875,-0.15350341796875,9795.608982041667,-0.02952087484300137,-0.01503620762377977,-0.03604961186647415
1596059342.652139,37,0,9795.647859041666,0.0784454345703125,-0.9886322021484375,-0.1128692626953125,9795.639078041668,0.007231547497212887,-0.04477439448237419,-0.03870664909482002
1596059342.701126,38,0,9795.677955041667,0.042755126953125,-0.9908599853515625,-0.1370849609375,9795.669173041668,-0.01909113675355911,0.07078549265861511,-0.006936203222721815
1596059342.712118,39,0,9795.708050041667,0.1285858154296875,-0.97308349609375,-0.1075439453125,9795.699268041668,0.03416303172707558,0.09533610939979553,-0.06696172058582306
1596059342.756841,40,0,9795.738145041667,0.11297607421875,-0.9907073974609375,-0.1373291015625,9795.729364041666,-0.01353232003748417,0.08319316059350967,0.05428560823202133
1596059342.772295,41,0,9795.768241041667,0.016937255859375,-0.9951019287109375,-0.092681884765625,9795.759459041667,0.0249269213527441,0.008314122445881367,-0.009095760062336922
1596059342.819082,42,0,9795.798336041667,0.112091064453125,-0.982818603515625,-0.0947418212890625,9795.789554041667,-0.009951700456440449,0.09541067481040955,-0.07789932191371918
1596059342.832554,43,0,9795.828431041667,0.146728515625,-0.9879302978515625,-0.1339569091796875,9795.819650041667,0.004861600697040558,0.1210649088025093,0.05332021415233612
1596059342.880547,44,0,9795.858527041668,0.041290283203125,-0.999908447265625,-0.1329498291015625,9795.849745041667,0.01188036147505045,-0.06054750084877014,0.02638526819646358
1596059342.892694,45,0,9795.888622041668,0.0830841064453125,-0.982513427734375,-0.0930328369140625,9795.879840041667,-0.03732500225305557,-0.08517108857631683,-0.05894773826003075
1596059342.937256,46,0,9795.918717041668,0.1055755615234375,-0.996429443359375,-0.1311798095703125,9795.909935041667,-0.0142537709325552,0.05609948933124542,0.05914374813437462
1596059342.952883,47,0,9795.948813041667,0.043853759765625,-0.9976348876953125,-0.1054840087890625,9795.940031041668,0.00609384523704648,-0.003272226080298424,0.02878877148032188
1596059342.999872,48,0,9795.978908041667,0.03692626953125,-0.9837799072265625,-0.1019439697265625,9795.970126041668,-0.05358626320958138,-0.02766145579516888,-0.05767927691340446
1596059343.013099,49,0,9796.009003041667,0.0821380615234375,-1.003097534179688,-0.125640869140625,9796.000221041668,0.004027232062071562,0.0866914838552475,-0.02419242076575756
1596059343.06008,50,0,9796.039099041667,0.1441192626953125,-0.98846435546875,-0.12158203125,9796.030317041666,-0.06329401582479477,0.06390441209077835,-0.04411100223660469
1596059343.073262,51,0,9796.069194041667,0.11944580078125,-0.9839630126953125,-0.122039794921875,9796.060412041666,0.002062884625047445,-0.005309544038027525,0.05079340562224388
1596059343.11712,52,0,9796.099289041667,0.089752197265625,-0.9959716796875,-0.1008758544921875,9796.090507041667,-0.0435248389840126,-0.04589132592082024,0.04309074580669403
1596059343.133468,53,0,9796.129385041668,0.0845489501953125,-0.988616943359375,-0.1258544921875,9796.120603041667,-0.02345845475792885,-0.03544986993074417,0.04037937894463539
1596059343.178162,54,0,9796.159480041668,0.0417633056640625,-0.989166259765625,-0.1243438720703125,9796.150698041667,-0.05322300642728806,-0.03794631734490395,0.05042322725057602
1596059343.193634,55,0,9796.189575041668,0.0697021484375,-0.988067626953125,-0.1177978515625,9796.180793041667,-0.01632890664041042,0.02593865618109703,0.001204814063385129
1596059343.237737,56,0,9796.219671041667,0.0853729248046875,-0.9944000244140625,-0.1202850341796875,9796.210889041668,-0.04271417483687401,-0.03110731951892376,0.01198342628777027
1596059343.253847,57,0,9796.249766041667,0.0522003173828125,-0.9836273193359375,-0.1331787109375,9796.240984041668,-0.01136770285665989,-0.05583716556429863,0.005626194179058075
1596059343.300261,58,0,9796.279861041667,0.1089324951171875,-0.992828369140625,-0.115478515625,9796.271079041668,-0.01722932048141956,0.0107093695551157,-0.003310575615614653
1596059343.314031,59,0,9796.309957041667,0.090606689453125,-0.990631103515625,-0.130462646484375,9796.301175041668,-0.01773905009031296,-0.08272311091423035,0.04467745497822762
1596059343.359778,60,0,9796.340052041667,0.05450439453125,-0.981719970703125,-0.1129302978515625,9796.331270041666,-0.01894279755651951,-0.05851870402693748,0.03052728250622749
1596059343.37419,61,0,9796.370147041667,0.084197998046875,-0.993133544921875,-0.122161865234375,9796.361365041666,-0.02597727254033089,-0.1220564022660255,0.002687662141397595
1596059343.415776,62,0,9796.400243041668,0.0242919921875,-1.008651733398438,-0.134490966796875,9796.391461041667,-0.04351978003978729,0.08815595507621765,0.06558007746934891
1596059343.434483,63,0,9796.430338041668,0.03369140625,-0.98101806640625,-0.0773773193359375,9796.421556041667,-0.006852313410490751,0.03740915656089783,-0.05314284563064575
1596059343.478249,64,0,9796.460433041668,0.1395416259765625,-1.00152587890625,-0.10064697265625,9796.451651041667,-0.1112655401229858,0.0543079786002636,-0.03390150889754295
1596059343.494607,65,0,9796.490529750001,0.1028289794921875,-0.993621826171875,-0.119964599609375,9796.48174775,-0.05688618496060371,0.07360044866800308,0.08059790730476379
1596059343.538461,66,0,9796.520624750001,0.0785675048828125,-0.9896697998046875,-0.119964599609375,9796.51184275,-0.1113425046205521,-0.04338795319199562,0.0353100523352623
1596059343.554781,67,0,9796.550719750001,0.0829620361328125,-0.9881591796875,-0.10845947265625,9796.54193775,-0.09127239137887955,-0.04657682403922081,0.04764661565423012
1596059343.600801,68,0,9796.580815750001,0.04461669921875,-1.006484985351562,-0.12646484375,9796.572033750001,-0.1454599946737289,-0.007833155803382397,0.08028765022754669
1596059343.6149,69,0,9796.610910750001,0.077667236328125,-0.9650726318359375,-0.13031005859375,9796.602128750001,-0.125505730509758,0.02859728969633579,0.048280980437994
1596059343.658986,70,0,9796.64100575,0.091552734375,-0.9809722900390625,-0.1235504150390625,9796.632223750001,-0.153620719909668,-0.03352200612425804,0.06725627183914185
1596059343.675107,71,0,9796.67110175,-0.0134429931640625,-0.977264404296875,-0.1320343017578125,9796.662319750001,-0.16596819460392,-0.06174458935856819,0.09043802320957184
1596059343.71811,72,0,9796.70119675,0.0294036865234375,-0.9972991943359375,-0.1057281494140625,9796.692414750001,-0.1560324728488922,0.1664102822542191,-0.01479252800345421
1596059343.735409,73,0,9796.73129175,0.1001739501953125,-0.994964599609375,-0.18145751953125,9796.722509750001,-0.1751300096511841,0.1914895325899124,0.03119227476418018
1596059343.779621,74,0,9796.761387750001,0.2351226806640625,-0.995208740234375,-0.2135162353515625,9796.75260575,-0.1081903874874115,-0.1685623824596405,-0.006740194279700518
1596059343.795602,75,0,9796.791482750001,0.0526123046875,-1.017120361328125,-0.1259307861328125,9796.78270075,-0.2581766843795776,-0.2916062772274017,0.2075193673372269
1596059343.840759,76,0,9796.821577750001,-0.0463104248046875,-0.9192047119140625,-0.137725830078125,9796.81279575,-0.1824097484350204,0.03410071134567261,0.1349799185991287
1596059343.855702,77,0,9796.851673750001,0.0767669677734375,-1.031112670898438,-0.1303253173828125,9796.84289175,-0.1873251497745514,0.02567154169082642,0.044774129986763
1596059343.89918,78,0,9796.881768750001,-0.07574462890625,-0.989593505859375,-0.2003631591796875,9796.872986750001,-0.2964364588260651,-0.02085414901375771,0.2015504240989685
1596059343.91593,79,0,9796.911863750001,0.016693115234375,-0.9234619140625,-0.2971038818359375,9796.903082750001,-0.1641053110361099,0.1148469597101212,-0.08226398378610611
1596059343.958874,80,0,9796.94195975,0.0631561279296875,-1.01483154296875,-0.2225189208984375,9796.933177750001,0.003788613015785813,0.1991192251443863,-0.006137787364423275
1596059343.976114,81,0,9796.97205475,-0.1238861083984375,-0.9793701171875,-0.212158203125,9796.963272750001,-0.2203451544046402,-0.1628789305686951,-0.03929387778043747
1596059344.019025,82,0,9797.00214975,-0.0062255859375,-0.92791748046875,-0.23126220703125,9796.993367750001,-0.1088069081306458,0.1269243955612183,-0.222355842590332
1596059344.036242,83,0,9797.032245750001,0.078582763671875,-1.020721435546875,-0.2195587158203125,9797.02346375,-0.05208903551101685,0.2483490854501724,-0.1707451045513153
1596059344.080347,84,0,9797.062340750001,0.1910552978515625,-0.9452667236328125,-0.1858367919921875,9797.05355875,-0.09159090369939804,0.05686168372631073,-0.1585358530282974
1596059344.096525,85,0,9797.092435750001,0.21307373046875,-1.029571533203125,-0.18304443359375,9797.08365375,0.0331217348575592,-0.007873635739088058,-0.0008202536264434457
1596059344.139349,86,0,9797.122531750001,0.07220458984375,-0.9615325927734375,-0.15313720703125,9797.11374975,-0.09156879782676697,-0.03692099824547768,0.1254996061325073
1596059344.156666,87,0,9797.152626750001,0.0331573486328125,-0.9951934814453125,-0.1600494384765625,9797.14384475,-0.06683042645454407,0.1345857679843903,0.0330096147954464
1596059344.201191,88,0,9797.182721750001,0.005523681640625,-0.969696044921875,-0.14434814453125,9797.173940750001,-0.1217722445726395,0.3814293742179871,0.04438237845897675
1596059344.216881,89,0,9797.21281775,0.0664825439453125,-0.9841156005859375,-0.28564453125,9797.204035750001,-0.1053517237305641,-0.001340901595540345,-0.063352070748806
1596059344.257485,90,0,9797.24291275,0.05743408203125,-0.9456024169921875,-0.3698577880859375,9797.234130750001,-0.2054682075977325,-0.4427321553230286,-0.06370440870523453
1596059344.277116,91,0,9797.27300775,0.0677337646484375,-0.983489990234375,-0.27337646484375,9797.264226750001,0.02138358540832996,-0.2032428681850433,-0.04478717967867851
1596059344.320218,92,0,9797.30310375,0.1024627685546875,-0.976318359375,-0.2088775634765625,9797.294321750001,-0.09197546541690826,-0.2588129043579102,-0.07843675464391708
1596059344.33732,93,0,9797.333198750001,0.0909576416015625,-0.9871063232421875,-0.1882171630859375,9797.32441675,-0.0681590810418129,-0.4393448829650879,-0.0002420813398202881
1596059344.379158,94,0,9797.363293750001,-0.0137176513671875,-0.978912353515625,-0.1105804443359375,9797.35451175,-0.1562705636024475,-0.2644199430942535,0.07238445430994034
1596059344.397507,95,0,9797.393389750001,-0.1265411376953125,-0.9630889892578125,-0.23773193359375,9797.38460775,-0.1645529866218567,-0.03667412325739861,0.02553731761872768
1596059344.438243,96,0,9797.423484750001,0.0545806884765625,-0.9420928955078125,-0.212158203125,9797.41470275,-0.05535726621747017,-0.1302541494369507,-0.2908757925033569
1596059344.457979,97,0,9797.453579750001,0.1373138427734375,-1.026947021484375,-0.293304443359375,9797.44479775,-0.1825130879878998,-0.1108665987849236,-0.1132269576191902
1596059344.5005,98,0,9797.483676291668,0.05413818359375,-0.9391326904296875,-0.315185546875,9797.474893750001,-0.239036813378334,-0.1754788756370544,-0.06217122822999954
1596059344.517807,99,0,9797.513771291668,0.1405181884765625,-0.9554443359375,-0.2475738525390625,9797.504989291667,-0.1006310060620308,-0.05044959113001823,-0.07182012498378754
1596059344.557091,100,0,9797.543866291668,0.1639556884765625,-0.99224853515625,-0.215423583984375,9797.535084291667,-0.09585408866405487,-0.2444933652877808,0.002284193178638816
1596059344.577995,101,0,9797.573962291668,0.0077667236328125,-0.9530181884765625,-0.214569091796875,9797.565180291667,-0.1387714594602585,-0.3143744468688965,0.09757769107818604
1596059344.62068,102,0,9797.604057291668,-0.0389404296875,-0.9659423828125,-0.24066162109375,9797.595275291667,-0.1336145251989365,-0.03099972754716873,0.01927010156214237
1596059344.638248,103,0,9797.634152291666,0.0635833740234375,-0.9561920166015625,-0.3020477294921875,9797.625370291667,-0.2402560114860535,0.1625577509403229,-0.2452140152454376
1596059344.679238,104,0,9797.664248291667,0.124542236328125,-0.9547119140625,-0.335968017578125,9797.655466291668,0.1112250611186028,0.06401760131120682,0.0618753507733345
1596059344.698469,105,0,9797.694343291667,0.0572052001953125,-0.9740447998046875,-0.243133544921875,9797.685561291668,-0.02188186347484589,-0.09102577716112137,-0.07717547565698624
1596059344.741739,106,0,9797.724438291667,0.0325927734375,-0.9630126953125,-0.2099761962890625,9797.715656291668,0.03006149642169476,0.09692974388599396,-0.02237454801797867
1596059344.758572,107,0,9797.754534291667,0.0952606201171875,-0.970916748046875,-0.29888916015625,9797.745752291667,-0.05670828744769096,0.06781259924173355,-0.05698072910308838
1596059344.799176,108,0,9797.784629291667,0.0653076171875,-0.9599761962890625,-0.251953125,9797.775847291667,-0.03906484320759773,0.1116993650794029,0.05759991332888603
1596059344.818789,109,0,9797.814724291668,0.083404541015625,-0.975341796875,-0.2360076904296875,9797.805942291667,-0.2046034783124924,0.2616473138332367,-0.04585137963294983
