loggingTime,loggingSample,identifierForVendor,accelerometerTimestamp_sinceReboot,accelerometerAccelerationX,accelerometerAccelerationY,accelerometerAccelerationZ,gyroTimestamp_sinceReboot,gyroRotationX,gyroRotationY,gyroRotationZ
1596059322.399083,1,0,9775.393765250001,0.07989501953125,-0.941070556640625,-0.2849884033203125,9775.38498325,-0.04709640517830849,-0.05127517133951187,-0.05700922384858131
1596059322.427931,2,0,9775.423860250001,0.08099365234375,-0.958465576171875,-0.3068695068359375,9775.41507825,0.1440674215555191,0.04721731320023537,0.01999607868492603
1596059322.460234,3,0,9775.453955250001,0.07623291015625,-0.95611572265625,-0.26654052734375,9775.44517325,0.1730969548225403,-0.02463557198643684,0.01782134175300598
1596059322.488039,4,0,9775.484050166668,0.02996826171875,-0.982574462890625,-0.2781524658203125,9775.475269166667,0.1993991285562515,0.01001295261085033,0.073054239153862
1596059322.519352,5,0,9775.514145166668,-0.00396728515625,-0.95465087890625,-0.2824554443359375,9775.505364166667,0.2497714906930923,-0.1309047490358353,0.1055013909935951
1596059322.548327,6,0,9775.544240166668,-0.0233612060546875,-0.9794158935546875,-0.2384185791015625,9775.535459166667,0.4106650352478027,0.01766101829707623,0.1563872098922729
1596059322.580362,7,0,9775.574335166668,-0.0585479736328125,-0.929779052734375,-0.19671630859375,9775.565554166667,0.4828968942165375,0.2277956157922745,0.08769389986991882
1596059322.608502,8,0,9775.604431166666,0.0345001220703125,-0.95538330078125,-0.076171875,9775.595649166667,0.1152317821979523,-0.06054456904530525,-0.6778730154037476
1596059322.640963,9,0,9775.634526166667,0.326873779296875,-1.044296264648438,-0.3530426025390625,9775.625744166668,-0.02483211271464825,0.2500828206539154,0.04905915632843971
1596059322.668742,10,0,9775.664621166667,0.0787811279296875,-0.9214324951171875,-0.2921600341796875,9775.655839166668,0.1158594936132431,-0.238981693983078,0.08086049556732178
1596059322.700427,11,0,9775.694716166667,0.08349609375,-0.9895477294921875,-0.2289886474609375,9775.685934166668,0.1268495619297028,-0.3029388189315796,-0.1568002700805664
1596059322.728891,12,0,9775.724811166667,0.0926361083984375,-0.986785888671875,-0.20660400390625,9775.716029166668,0.1992260217666626,-0.07614483684301376,0.04153678938746452
1596059322.760389,13,0,9775.754906166667,0.03955078125,-0.96612548828125,-0.2039947509765625,9775.746124166668,0.0762215331196785,-0.09727408736944199,-0.0235588550567627
1596059322.789005,14,0,9775.785001166667,0.0709686279296875,-1.003097534179688,-0.168975830078125,9775.776219166668,-0.0257322620600462,-0.00959749985486269,0.0429685041308403
1596059322.820124,15,0,9775.815096166667,0.05401611328125,-0.96282958984375,-0.210296630859375,9775.806314166668,0.06200984120368958,0.2007530778646469,0.04834968969225883
1596059322.849269,16,0,9775.845191166667,0.0749053955078125,-0.985382080078125,-0.184051513671875,9775.836409166668,0.07980215549468994,0.1928504109382629,0.04126541316509247
1596059322.898639,17,0,9775.875286166667,0.1201629638671875,-0.991729736328125,-0.2530975341796875,9775.866505166667,0.007618238683789968,0.02309945970773697,0.05364245548844337
1596059322.909406,18,0,9775.905381166667,0.0435333251953125,-0.958953857421875,-0.2030487060546875,9775.896600166667,0.1290690302848816,0.0314151793718338,0.1232827827334404
1596059322.956508,19,0,9775.935476166667,-0.022247314453125,-0.98809814453125,-0.198944091796875,9775.926695166667,0.0818495899438858,-0.08712238818407059,0.03011822141706944
1596059322.969623,20,0,9775.965571166667,0.0381317138671875,-0.9781951904296875,-0.2479095458984375,9775.956790166667,0.003142263740301132,-0.1592895239591599,0.001912415958940983
1596059322.999949,21,0,9775.995666166667,0.1171417236328125,-0.96466064453125,-0.0996551513671875,9775.986885166667,0.1899366527795792,0.03221892192959785,-0.1146365702152252
1596059323.029727,22,0,9776.025762166668,0.0216827392578125,-1.0238037109375,-0.1274566650390625,9776.016980166667,-0.102788433432579,-0.07422655820846558,0.1228843778371811
1596059323.060523,23,0,9776.055857166668,-0.069915771484375,-0.9504547119140625,-0.1613006591796875,9776.047075166667,0.05925027281045914,0.2294385135173798,0.1048321425914764
1596059323.089883,24,0,9776.085952166668,0.025238037109375,-0.9848480224609375,-0.1666717529296875,9776.077170166667,0.02998586185276508,0.4666345417499542,-0.1220691800117493
1596059323.135801,25,0,9776.116047166668,0.2077484130859375,-0.9925537109375,-0.2385101318359375,9776.107265166667,0.02330772019922733,0.1179527342319489,-0.04419169574975967
1596059323.150172,26,0,9776.146142166668,0.0710601806640625,-0.9889984130859375,-0.220001220703125,9776.137360166667,0.008831840939819813,-0.1372254937887192,0.08653675764799118
1596059323.195515,27,0,9776.176237166666,-0.1066436767578125,-0.9710540771484375,-0.141693115234375,9776.167455166667,0.04328062757849693,-0.00361763802357018,0.06692949682474136
1596059323.210443,28,0,9776.206332166666,0.083740234375,-0.9760284423828125,-0.144256591796875,9776.197550166667,0.03230680525302887,0.2272459417581558,-0.1728727072477341
1596059323.256796,29,0,9776.236427166667,0.2527313232421875,-1.010208129882812,-0.1785125732421875,9776.227645166668,-0.01471795979887247,0.2305637001991272,0.009296562522649765
1596059323.270586,30,0,9776.266522166667,0.09600830078125,-0.9680023193359375,-0.2090911865234375,9776.257740166668,-0.007703726179897785,0.01662851125001907,0.2713931500911713
1596059323.316086,31,0,9776.296617166667,0.0365142822265625,-0.98321533203125,-0.1516571044921875,9776.287836166668,0.030164560303092,-0.1602730304002762,0.02327389642596245
1596059323.330729,32,0,9776.326712166667,-0.0529632568359375,-0.9822998046875,-0.1357574462890625,9776.317931166668,-0.04332377016544342,0.109532356262207,0.1683658361434937
1596059323.373155,33,0,9776.356807166667,0.031646728515625,-0.95831298828125,-0.1805572509765625,9776.348026166666,-0.002351571340113878,0.1327327489852905,-0.01784184761345387
1596059323.390867,34,0,9776.386902166667,0.040374755859375,-1.0198974609375,-0.17547607421875,9776.378121166666,-0.06255099922418594,-0.1093025207519531,-0.02376258745789528
1596059323.437804,35,0,9776.416998166667,-0.03271484375,-0.9590301513671875,-0.194488525390625,9776.408216166667,-0.06310706585645676,-0.06942035257816315,0.008104532025754452
1596059323.451106,36,0,9776.447093166667,0.0988922119140625,-0.9842529296875,-0.171539306640625,9776.438311166667,0.01129686273634434,0.07455173134803772,-0.1214814260601997
1596059323.49747,37,0,9776.477187375001,0.1711273193359375,-1.011993408203125,-0.1990966796875,9776.468405375001,-0.03504267334938049,0.08293216675519943,0.01699762605130672
1596059323.511389,38,0,9776.507282375,0.0694580078125,-0.964996337890625,-0.210296630859375,9776.498500375001,-0.01091869361698627,-0.1420098692178726,0.09395632147789001
1596059323.557268,39,0,9776.537377375,0.015716552734375,-1.001708984375,-0.1514739990234375,9776.528595375001,0.01059804949909449,-0.3024621307849884,-0.02177480421960354
1596059323.5747,40,0,9776.567472375,-0.0187530517578125,-0.96856689453125,-0.16180419921875,9776.558690375001,-0.07937471568584442,-0.08282244205474854,0.05031536892056465
1596059323.61779,41,0,9776.597567375,0.0201416015625,-0.9830474853515625,-0.157440185546875,9776.588785375001,0.03957643732428551,0.2056381106376648,0.0004277036641724408
1596059323.631657,42,0,9776.627662375,0.0708465576171875,-0.9906158447265625,-0.1693572998046875,9776.618881375001,-0.1005649566650391,0.1660837829113007,0.0330255925655365
1596059323.672377,43,0,9776.657757375,0.0515289306640625,-0.9775543212890625,-0.2125091552734375,9776.648976375001,-0.03638703748583794,0.05830032378435135,0.07205235213041306
1596059323.691877,44,0,9776.687852375,0.0441741943359375,-0.9861297607421875,-0.2195587158203125,9776.679071375,-0.05428507551550865,0.03463574126362801,0.02198199741542339
1596059323.737499,45,0,9776.717947375,0.0529632568359375,-0.973388671875,-0.2259368896484375,9776.709166375,-0.0005696501466445625,0.07522524893283844,0.03772234544157982
1596059323.752049,46,0,9776.748042375,0.0455322265625,-0.9899444580078125,-0.1714630126953125,9776.739261375,0.01770815625786781,0.01135332230478525,0.03581951558589935
1596059323.797723,47,0,9776.778138375001,0.05010986328125,-0.9924774169921875,-0.18084716796875,9776.769356375,-0.04494616761803627,-0.1012552455067635,0.01978755369782448
1596059323.812323,48,0,9776.808233375001,-0.0059661865234375,-0.967132568359375,-0.19549560546875,9776.799451375,0.002986202482134104,0.02729686908423901,0.07848016172647476
1596059323.857595,49,0,9776.838328375001,-0.0059967041015625,-0.983154296875,-0.1748046875,9776.829546375,0.01702452264726162,0.08586350828409195,-0.01449478697031736
1596059323.873547,50,0,9776.868423375001,0.0283355712890625,-0.9884490966796875,-0.180389404296875,9776.859641375,0.0004287689225748181,0.09067077934741974,-0.01377306971698999
1596059323.918614,51,0,9776.898518375001,0.02880859375,-0.9698028564453125,-0.2049560546875,9776.889736375,0.009239304810762405,0.07965381443500519,-0.01433872524648905
1596059323.932631,52,0,9776.928613375001,0.0769195556640625,-0.9952850341796875,-0.2281341552734375,9776.919831375,-0.02107971906661987,-0.08446827530860901,-0.03816363215446472
1596059323.973876,53,0,9776.958708375001,0.0458526611328125,-1.013259887695312,-0.19976806640625,9776.949926375,-0.003658384317532182,-0.2351976037025452,-0.003429885255172849
1596059323.992982,54,0,9776.988803375001,0.0180206298828125,-0.9927215576171875,-0.1796417236328125,9776.980022375001,-0.01764397509396076,-0.3031708002090454,-0.02001738362014294
1596059324.040011,55,0,9777.018898375001,0.0079345703125,-0.9493865966796875,-0.1270904541015625,9777.010117375001,-0.01369770243763924,-0.07698319852352142,-0.01759923435747623
1596059324.052977,56,0,9777.048993375001,-0.0529327392578125,-0.9475250244140625,-0.12152099609375,9777.040212375001,-0.01401302125304937,0.2333352565765381,0.01370436046272516
1596059324.097363,57,0,9777.079089375,-0.0485687255859375,-0.992706298828125,-0.1683349609375,9777.070307375001,-0.05209888890385628,0.196898952126503,-0.09764906018972397
1596059324.113222,58,0,9777.109184375,0.05615234375,-1.003128051757812,-0.202545166015625,9777.100402375001,-0.09101459383964539,0.146617665886879,-0.1913217604160309
1596059324.156994,59,0,9777.139279375,0.0296173095703125,-1.003585815429688,-0.1972808837890625,9777.130497375001,-0.04869430139660835,0.1071067452430725,-0.1286144405603409
1596059324.17614,60,0,9777.169374375,0.0341644287109375,-1.023056030273438,-0.1233062744140625,9777.160592375001,-0.02964604273438454,0.1583821773529053,-0.3721450567245483
1596059324.216706,61,0,9777.199469375,0.1011505126953125,-0.8766326904296875,-0.1907806396484375,9777.190687375001,-0.2006886303424835,0.05086823925375938,-0.1754391938447952
1596059324.2339,62,0,9777.229564375,0.130340576171875,-1.0791015625,-0.1029815673828125,9777.220782375001,0.04395334422588348,0.1633644253015518,-0.1432671397924423
1596059324.272627,63,0,9777.259659375,0.415130615234375,-0.9137725830078125,-0.257080078125,9777.250877375001,-0.3116066157817841,-0.03383120149374008,-0.186158150434494
1596059324.293814,64,0,9777.289754375,0.3127593994140625,-1.021835327148438,-0.3027191162109375,9777.280972375,0.05007408559322357,-0.2250315248966217,0.3855974972248077
1596059324.334773,65,0,9777.319849375001,-0.1471710205078125,-0.9820556640625,-0.17120361328125,9777.311068375,-0.05518602207303047,-0.4626355469226837,0.3994837403297424
1596059324.353951,66,0,9777.349944375001,-0.190582275390625,-0.9066314697265625,-0.2984161376953125,9777.341163375,-0.02875441685318947,-0.2267242223024368,0.06874151527881622
1596059324.398684,67,0,9777.380040375001,-0.01806640625,-1.00823974609375,-0.112396240234375,9777.371258375,0.08066954463720322,0.2067853957414627,-0.1077323257923126
1596059324.414242,68,0,9777.410135375001,-0.24932861328125,-0.97979736328125,-0.158233642578125,9777.401353375,-0.1544572114944458,0.01805383525788784,-0.009413741528987885
1596059324.458316,69,0,9777.440230375001,0.0066680908203125,-0.921478271484375,-0.252960205078125,9777.431448375,-0.065770223736763,0.3607818782329559,-0.429364949464798
1596059324.474827,70,0,9777.470325375001,0.3762664794921875,-1.028579711914062,-0.2254638671875,9777.461543375,0.07228058576583862,0.4253917634487152,-0.2812420725822449
1596059324.51787,71,0,9777.500420375001,0.23089599609375,-1.016357421875,-0.2528839111328125,9777.491638375001,-0.1190907061100006,-0.06564398854970932,0.08152628690004349
1596059324.534513,72,0,9777.530515375001,0.052032470703125,-0.91351318359375,-0.23443603515625,9777.521733375001,0.01968954876065254,-0.4775311350822449,-0.004368116613477468
1596059324.57414,73,0,9777.560610375001,-0.00555419921875,-1.051742553710938,-0.1271820068359375,9777.551828375001,-0.01924053952097893,-0.1368340104818344,-0.09012536704540253
1596059324.59469,74,0,9777.590705375,0.045684814453125,-0.9106903076171875,-0.14227294921875,9777.581924375001,-0.06071314960718155,-0.0378379262983799,-0.08024823665618896
1596059324.640159,75,0,9777.620800375,0.12335205078125,-1.031539916992188,-0.20355224609375,9777.612019375001,-0.03935113549232483,0.05123442411422729,-0.1697608083486557
1596059324.658356,76,0,9777.650895375,0.11419677734375,-0.937255859375,-0.3076324462890625,9777.642114375001,-0.1322853416204453,-0.2070365399122238,0.002572879893705249
1596059324.696123,77,0,9777.680991375,0.1542510986328125,-0.998382568359375,-0.246490478515625,9777.672209375001,0.0298463124781847,-0.2876158058643341,-0.122994102537632
1596059324.71512,78,0,9777.711086375,0.04010009765625,-0.9801177978515625,-0.1446685791015625,9777.702304375001,-0.1224353685975075,-0.2613383829593658,0.07880640029907227
1596059324.759123,79,0,9777.741181375,0.0748291015625,-0.9677276611328125,-0.1524505615234375,9777.732399375001,-0.0752904936671257,-0.1433917880058289,-0.02489150129258633
1596059324.775466,80,0,9777.771276375001,0.1501617431640625,-0.985748291015625,-0.19244384765625,9777.762494375,-0.1544857174158096,-0.03230148181319237,0.071363665163517
1596059324.815838,81,0,9777.801371375001,0.0506439208984375,-0.9657440185546875,-0.28558349609375,9777.792589375,-0.1127004474401474,-0.1718985289335251,0.2202277034521103
1596059324.835561,82,0,9777.831466375001,-0.084625244140625,-0.9687957763671875,-0.2013397216796875,9777.822684375,-0.06987042725086212,-0.005744970869272947,0.07784206420183182
1596059324.877144,83,0,9777.861561375001,0.01776123046875,-0.9680023193359375,-0.245574951171875,9777.852780375,-0.07956140488386154,0.1828446537256241,-0.1196036264300346
1596059324.895823,84,0,9777.891656375001,0.11590576171875,-0.96826171875,-0.234527587890625,9777.882875375,-0.05300116539001465,0.1192678064107895,-0.02624678425490856
1596059324.936794,85,0,9777.921751375001,0.136627197265625,-0.9798583984375,-0.2125396728515625,9777.912970375,-0.05816316977143288,-0.02041472680866718,-0.02345339395105839
1596059324.956386,86,0,9777.951847375001,0.056884765625,-0.975830078125,-0.2083282470703125,9777.943065375001,-0.1195889785885811,-0.03434519097208977,0.07430645823478699
1596059324.996866,87,0,9777.981942375001,0.1009368896484375,-0.960357666015625,-0.238494873046875,9777.973160375001,-0.06034616380929947,0.043934166431427,-0.01310381758958101
1596059325.01621,88,0,9778.012037375001,0.13916015625,-0.9873809814453125,-0.2603759765625,9778.003255375001,-0.06789755821228027,-0.02545635774731636,0.08146796375513077
1596059325.057016,89,0,9778.042132375,0.057525634765625,-0.959869384765625,-0.25701904296875,9778.033350375001,-0.06732285022735596,-0.1468152701854706,0.1322136968374252
1596059325.076276,90,0,9778.072227375,-0.019775390625,-0.970367431640625,-0.25604248046875,9778.063445375001,-0.04311178252100945,-0.07314664870500565,0.06848958134651184
1596059325.117109,91,0,9778.102322375,-0.0308990478515625,-0.9565277099609375,-0.2380828857421875,9778.093540375001,-0.01555978506803513,0.008750081993639469,-0.01669935137033463
1596059325.13675,92,0,9778.132417375,0.01788330078125,-0.9717559814453125,-0.2334136962890625,9778.123636375001,-0.02310185693204403,0.04319833591580391,-0.06006120517849922
1596059325.173159,93,0,9778.162512375,0.0543365478515625,-0.9571075439453125,-0.2531585693359375,9778.153731375001,0.1292671710252762,-0.09141460061073303,-0.03179095312952995
1596059325.196811,94,0,9778.192607375,0.0929718017578125,-0.975799560546875,-0.224578857421875,9778.183826375001,-0.01672811433672905,0.1076585501432419,-0.07350830733776093
1596059325.23606,95,0,9778.222703375,0.155975341796875,-0.9746551513671875,-0.2298126220703125,9778.213921375,-0.022506108507514,0.2072783559560776,0.04571235924959183
1596059325.256817,96,0,9778.252798375001,0.0798492431640625,-1.008987426757812,-0.258544921875,9778.244016375,-0.1354017704725266,-0.03423280641436577,0.0427357442677021
1596059325.295173,97,0,9778.282893375001,0.0689697265625,-0.9492340087890625,-0.219390869140625,9778.274111375,0.04619279503822327,0.02693281508982182,0.09498456865549088
1596059325.316989,98,0,9778.312988375001,0.05743408203125,-0.9797515869140625,-0.259979248046875,9778.304206375,-0.04175277426838875,-0.03471110761165619,0.05682519823312759
1596059325.357004,99,0,9778.343083375001,0.0599822998046875,-0.96533203125,-0.2497100830078125,9778.334301375,0.06147054955363274,-0.05886438116431236,0.04430141672492027
1596059325.377322,100,0,9778.373178375001,0.01971435546875,-0.9723052978515625,-0.223175048828125,9778.364397375,0.03740249946713448,-0.03675588220357895,0.04915636032819748
1596059325.419001,101,0,9778.403273375001,0.0283203125,-0.9699554443359375,-0.2560577392578125,9778.394492375,0.03465065360069275,-0.1196182742714882,-0.02042111940681934
1596059325.437385,102,0,9778.433369375001,-0.0229034423828125,-0.9756927490234375,-0.2259674072265625,9778.424587375001,-0.008920524269342422,0.02544357441365719,0.02168239280581474
1596059325.474542,103,0,9778.463464500001,0.002716064453125,-0.957794189453125,-0.2280120849609375,9778.454682375001,-0.05880526080727577,0.1191527545452118,-0.04905809089541435
1596059325.497557,104,0,9778.493559500001,0.1259613037109375,-0.97479248046875,-0.232421875,9778.4847775,0.02133831195533276,0.1086236834526062,-0.07470166683197021
1596059325.537386,105,0,9778.523654500001,0.098876953125,-0.9935760498046875,-0.219268798828125,9778.5148725,-0.04267742112278938,0.01623276621103287,0.06335313618183136
1596059325.557783,106,0,9778.553749500001,0.0236663818359375,-0.9520263671875,-0.236358642578125,9778.5449675,-0.01701759919524193,-0.03665068745613098,0.02547340281307697
1596059325.59614,107,0,9778.583844500001,0.097625732421875,-0.979644775390625,-0.2545623779296875,9778.5750625,0.0002181128947995603,-0.06536116451025009,-0.02868703752756119
1596059325.617965,108,0,9778.613939500001,0.10003662109375,-0.991302490234375,-0.218536376953125,9778.6051585,0.0002122539444826543,-0.02967160940170288,0.07864261418581009
1596059325.658621,109,0,9778.644034500001,-0.00909423828125,-0.9492645263671875,-0.205078125,9778.635253500001,-0.02584011852741241,-0.1088362038135529,0.0648152157664299
1596059325.678408,110,0,9778.674130500001,0.0501861572265625,-0.991363525390625,-0.2013702392578125,9778.665348500001,0.004099137615412474,0.009701096452772617,-0.03006788715720177
1596059325.716754,111,0,9778.704225500001,0.0233154296875,-0.9697265625,-0.2494659423828125,9778.695443500001,-0.06683549284934998,0.02612321265041828,0.06835881620645523
1596059325.740352,112,0,9778.7343205,0.0047760009765625,-0.951141357421875,-0.2684478759765625,9778.725538500001,-0.01203775405883789,-0.02035826817154884,-0.04354694485664368
1596059325.774758,113,0,9778.7644155,0.0720672607421875,-0.987548828125,-0.2226715087890625,9778.755633500001,0.008325307630002499,0.005122057627886534,-0.03904780000448227
1596059325.79848,114,0,9778.7945105,0.0346832275390625,-0.9695281982421875,-0.2430877685546875,9778.785728500001,-0.05118755251169205,-0.005299690645188093,0.01351128146052361
1596059325.836481,115,0,9778.8246055,0.021514892578125,-0.96630859375,-0.2298126220703125,9778.815824500001,0.005037901923060417,0.02144723571836948,-0.04942933470010757
1596059325.858696,116,0,9778.8547005,0.062042236328125,-0.980377197265625,-0.2249603271484375,9778.845919500001,-0.05103042721748352,0.03195979818701744,-0.02521906979382038
1596059325.900084,117,0,9778.8847965,0.0416107177734375,-0.96624755859375,-0.258514404296875,9778.876014500001,-0.1062348261475563,-0.01429851166903973,0.002295112237334251
1596059325.918921,118,0,9778.914891500001,0.032135009765625,-0.967010498046875,-0.2576446533203125,9778.9061095,-0.02681270614266396,0.01614834368228912,-0.02243899554014206
1596059325.958221,119,0,9778.944986500001,0.0490570068359375,-0.982330322265625,-0.287872314453125,9778.9362045,0.09595608711242676,-0.1563975960016251,0.006411027628928423
1596059325.979173,120,0,9778.975081500001,0.0778961181640625,-0.9456787109375,-0.2189483642578125,9778.9662995,0.1095320880413055,-0.09503543376922607,-0.0939781591296196
1596059326.017245,121,0,9779.005176500001,0.0992584228515625,-1.008468627929688,-0.2031097412109375,9778.9963945,-0.1921947449445724,0.09676223248243332,0.01573262363672256
