loggingTime,loggingSample,identifierForVendor,accelerometerTimestamp_sinceReboot,accelerometerAccelerationX,accelerometerAccelerationY,accelerometerAccelerationZ,gyroTimestamp_sinceReboot,gyroRotationX,gyroRotationY,gyroRotationZ
1596059256.596338,1,0,9709.576574791667,-0.0346221923828125,-1.00634765625,-0.135589599609375,9709.567792791668,-0.1464506834745407,0.01412087865173817,-0.02043150551617146
1596059256.61066,2,0,9709.606668791666,0.0366668701171875,-0.97637939453125,-0.200439453125,9709.597887791668,0.006468818057328463,0.155148833990097,-0.1332941353321075
1596059256.652627,3,0,9709.636762791668,0.0223388671875,-1.00189208984375,-0.1212921142578125,9709.627981791667,0.1567070484161377,0.08598894625902176,0.02239452116191387
1596059256.671058,4,0,9709.666857791668,-0.019805908203125,-0.9957275390625,-0.1235809326171875,9709.658075791667,0.06524105370044708,0.06032406166195869,0.06975697726011276
1596059256.71853,5,0,9709.696951791668,-0.0391845703125,-0.9968414306640625,-0.1145172119140625,9709.688170791667,-0.0529971718788147,0.00172519579064101,0.05693332478404045
1596059256.731108,6,0,9709.727046791668,-0.0507049560546875,-0.966522216796875,-0.1564483642578125,9709.718264791667,0.02868650667369366,0.006958040874451399,-0.04115915298461914
1596059256.780592,7,0,9709.757140791668,0.0121002197265625,-1.009857177734375,-0.1424560546875,9709.748359791667,0.02714559994637966,0.007024353835731745,-0.03477821871638298
1596059256.791345,8,0,9709.787235791668,-0.0130462646484375,-0.990081787109375,-0.1363372802734375,9709.778453791667,0.02865987457334995,-0.0748036652803421,0.01089738868176937
1596059256.839777,9,0,9709.817329791667,-0.0335845947265625,-0.978607177734375,-0.119354248046875,9709.808548791667,0.03218403458595276,-0.1370300203561783,-0.05355031043291092
1596059256.851383,10,0,9709.847423791667,0.006683349609375,-1.008224487304688,-0.1572113037109375,9709.838642791667,0.09091073274612427,-0.03314943239092827,-0.06863711774349213
1596059256.897079,11,0,9709.877518791667,0.047882080078125,-0.9637451171875,-0.177978515625,9709.868736791666,0.1952395290136337,-0.3036411106586456,-0.06380640715360641
1596059256.911707,12,0,9709.907612791667,-0.013214111328125,-1.04412841796875,-0.109375,9709.898831791666,0.1470802575349808,-0.3102513551712036,0.002651176881045103
1596059256.959118,13,0,9709.937707791667,-0.084381103515625,-0.95867919921875,-0.128265380859375,9709.928925791668,0.03830024972558022,-0.2274595201015472,0.005760150961577892
1596059256.971875,14,0,9709.967801791667,-0.1158905029296875,-0.9567108154296875,-0.0374755859375,9709.959020791668,0.1832214891910553,0.03889839723706245,-0.05929847806692123
1596059257.018701,15,0,9709.997895791666,-0.102813720703125,-1.035888671875,-0.110198974609375,9709.989114791668,0.06794309616088867,0.2458177506923676,-0.07251042127609253
1596059257.032008,16,0,9710.027990791667,-0.0223846435546875,-0.94757080078125,-0.21380615234375,9710.019208791668,0.06015415117144585,0.2581417858600616,-0.1585856527090073
1596059257.079387,17,0,9710.058084791668,-0.027130126953125,-1.019515991210938,-0.127197265625,9710.049303791668,0.2042295634746552,0.2499640285968781,-0.1820765882730484
1596059257.092233,18,0,9710.088179791668,-0.020355224609375,-0.99053955078125,-0.1652679443359375,9710.079397791667,0.0561000220477581,0.1436772793531418,-0.1469170153141022
1596059257.137287,19,0,9710.118273791668,-0.0490875244140625,-0.976470947265625,-0.092529296875,9710.109492791667,0.2294094860553741,0.04392245039343834,-0.222768098115921
1596059257.152432,20,0,9710.148368791668,0.0074005126953125,-1.002792358398438,-0.0234375,9710.139586791667,0.1344483494758606,0.1627393811941147,-0.2844197452068329
1596059257.197458,21,0,9710.178462791668,0.088531494140625,-0.99664306640625,-0.0360260009765625,9710.169681791667,0.1574237048625946,0.2825994789600372,-0.2063534408807755
1596059257.212666,22,0,9710.208556791667,0.067779541015625,-1.049835205078125,-0.0688018798828125,9710.199775791667,0.03575320541858673,0.4708956182003021,-0.1058947443962097
1596059257.258478,23,0,9710.238651791668,0.1378173828125,-0.968658447265625,-0.133819580078125,9710.229869791667,0.1302978247404099,0.5001751780509949,-0.04879230633378029
1596059257.272855,24,0,9710.268745791667,0.18450927734375,-1.04571533203125,-0.1018829345703125,9710.259964791667,0.200823649764061,0.177990511059761,-0.03604668378829956
1596059257.322568,25,0,9710.298840791667,0.1836090087890625,-0.997650146484375,-0.08782958984375,9710.290058791667,0.1346140056848526,-0.09081832319498062,0.08935943990945816
1596059257.333032,26,0,9710.328934791667,0.0192718505859375,-1.010147094726562,-0.0544586181640625,9710.320153791667,0.2337485700845718,-0.05412422120571136,0.2751109302043915
1596059257.378485,27,0,9710.359029791667,-0.1014862060546875,-0.969696044921875,-0.0493316650390625,9710.350247791668,0.1383016854524612,-0.03888082131743431,0.184760257601738
1596059257.393233,28,0,9710.389123791667,-0.0399322509765625,-0.9677581787109375,-0.0475616455078125,9710.380341791668,0.2316561341285706,0.2445090860128403,0.04708149284124374
1596059257.43847,29,0,9710.419217625,-0.08197021484375,-0.99658203125,0.04290771484375,9710.410436625001,0.2184223532676697,0.3639398813247681,0.1141065955162048
1596059257.4533,30,0,9710.449312625,-0.11358642578125,-1.008834838867188,0.0355682373046875,9710.440530625001,0.106521911919117,0.2753287851810455,-0.07112877070903778
1596059257.496435,31,0,9710.479406625,0.0293731689453125,-1.01348876953125,0.0197906494140625,9710.470625625001,0.04776512458920479,0.2977352738380432,-0.1952437907457352
1596059257.513664,32,0,9710.509501625,0.034271240234375,-0.98626708984375,-0.023284912109375,9710.500719625001,0.03391322493553162,0.4355943500995636,-0.002973951864987612
1596059257.560407,33,0,9710.539595625001,0.0720367431640625,-1.006881713867188,-0.0193328857421875,9710.530814625001,0.08580838143825531,0.4019197523593903,-0.08150524646043777
1596059257.573807,34,0,9710.569689625001,0.0993499755859375,-1.026565551757812,-0.032562255859375,9710.560908625001,-0.003443733556196094,0.2477299124002457,-0.02469203062355518
1596059257.619019,35,0,9710.599784625001,0.022308349609375,-0.9871063232421875,-0.0421142578125,9710.591002625,-0.01921364106237888,-0.02820394188165665,0.03753059729933739
1596059257.633899,36,0,9710.629878625001,-0.024993896484375,-1.000274658203125,0.001800537109375,9710.621097625,-0.02343821339309216,-0.1256623268127441,-0.08207303285598755
1596059257.679632,37,0,9710.659973625001,0.0032806396484375,-0.9951324462890625,0.0242156982421875,9710.651191625,-0.03522749617695808,-0.01208169665187597,-0.08222802728414536
1596059257.694193,38,0,9710.690067625001,0.0347442626953125,-0.99774169921875,-0.0115966796875,9710.681286625,-0.03569195047020912,0.08575671911239624,-0.07280523329973221
1596059257.739549,39,0,9710.720162625001,0.0491943359375,-1.001571655273438,-0.0319976806640625,9710.711380625,-0.003648797050118446,0.1252471357584,-0.05282672867178917
1596059257.754607,40,0,9710.750256625,0.0498504638671875,-1.004165649414062,-0.0565185546875,9710.741474625,-0.005772401578724384,0.06781952828168869,-0.05205654352903366
1596059257.798181,41,0,9710.780350625,-0.0009765625,-1.006240844726562,-0.0579376220703125,9710.771569625,-0.04563193395733833,-0.05329731106758118,-0.05186426267027855
1596059257.814607,42,0,9710.810445625,-0.0289459228515625,-1.00250244140625,0.0164947509765625,9710.801663625001,-0.08663662523031235,0.05603663623332977,-0.04301111772656441
1596059257.860379,43,0,9710.840539625,0.0470428466796875,-0.9854278564453125,-0.0142059326171875,9710.831758625001,-0.03782354667782784,0.2857502698898315,-0.07187206298112869
1596059257.874779,44,0,9710.870634625,0.119659423828125,-1.008407592773438,-0.047698974609375,9710.861852625001,-0.05217398703098297,0.09931273758411407,-0.05351382493972778
1596059257.920041,45,0,9710.900728625,0.0866851806640625,-1.009246826171875,-0.0695037841796875,9710.891947625001,-0.01962243765592575,-0.05355217307806015,0.01386388391256332
1596059257.934903,46,0,9710.930823625,0.01007080078125,-0.994903564453125,-0.0341339111328125,9710.922041625001,-0.02003682404756546,-0.09077118337154388,0.01232138089835644
1596059257.976745,47,0,9710.960917625001,0.0170745849609375,-0.9907684326171875,-0.0193023681640625,9710.952135625001,0.006656038574874401,-0.0408845841884613,-0.03208336606621742
1596059257.995152,48,0,9710.991011625001,0.0458831787109375,-0.9993438720703125,-0.055023193359375,9710.982230625001,0.03425570949912071,-0.009358614683151245,-0.0356978103518486
1596059258.038214,49,0,9711.021106625001,0.039398193359375,-1.000701904296875,-0.041168212890625,9711.012324625,0.06826214492321014,-0.02035001292824745,-0.04331738129258156
1596059258.055328,50,0,9711.051200625001,-0.001434326171875,-0.9954833984375,-0.0200958251953125,9711.042419625001,0.03364930674433708,-0.006245645228773355,-0.04010534286499023
1596059258.097824,51,0,9711.081295625001,0.033721923828125,-1.000457763671875,0.0033416748046875,9711.072513625,0.04646071046590805,0.08647789806127548,-0.07243425399065018
1596059258.1155,52,0,9711.111389625001,0.04461669921875,-0.99713134765625,-0.029632568359375,9711.102608625,0.01703198067843914,0.03805737197399139,-0.04802212119102478
1596059258.15873,53,0,9711.141483625001,0.0689849853515625,-1.001937866210938,-0.0430908203125,9711.132702625,0.03465438261628151,0.003221892286092043,-0.05365417525172234
1596059258.175705,54,0,9711.171578625001,0.0344696044921875,-1.021942138671875,-0.006011962890625,9711.162796625,-0.04278368130326271,-0.009309079498052597,-0.02054761908948421
1596059258.219142,55,0,9711.201672625,0.0181427001953125,-0.990234375,-0.011962890625,9711.192891625,-0.06598541140556335,-0.02699060551822186,-0.03747014328837395
1596059258.235874,56,0,9711.231767625,0.0300750732421875,-0.9932403564453125,-0.002899169921875,9711.222985625001,-0.07963011413812637,0.01996252313256264,-0.021679462864995
1596059258.284765,57,0,9711.261861625,0.0450592041015625,-1.001724243164062,-0.031402587890625,9711.253080625,-0.01143135223537683,0.08774396777153015,-0.05633730813860893
1596059258.296094,58,0,9711.291956625,0.0750579833984375,-0.9996185302734375,-0.043670654296875,9711.283174625001,-0.01919233612716198,0.1102404892444611,-0.02835467644035816
1596059258.335701,59,0,9711.322050625,0.0605010986328125,-1.004119873046875,-0.0333099365234375,9711.313268625001,-0.02927985787391663,0.02963565662503242,-0.03056403435766697
1596059258.356289,60,0,9711.352144625,0.049346923828125,-0.9943695068359375,0.0018768310546875,9711.343363625001,-0.01550146192312241,0.03463947027921677,-0.02184750884771347
1596059258.396893,61,0,9711.382239625,0.0789031982421875,-1.00537109375,-0.048095703125,9711.373457625001,-0.03274516388773918,0.01123241428285837,-0.01207344047725201
1596059258.416353,62,0,9711.412333666667,0.0352325439453125,-0.997955322265625,-0.0196075439453125,9711.403552666667,-0.001773931551724672,-0.03838760405778885,-0.003861050819978118
1596059258.456272,63,0,9711.442428666667,0.027557373046875,-0.9969940185546875,-0.001220703125,9711.433646666666,-0.05051031336188316,0.01946584321558475,-0.02300891280174255
1596059258.476478,64,0,9711.472522666667,0.0630340576171875,-0.99853515625,-0.05084228515625,9711.463741666666,-0.05874347314238548,0.01314855925738811,-0.00063356600003317
1596059258.516592,65,0,9711.502617666667,0.0762939453125,-1.0062255859375,-0.0277862548828125,9711.493835666668,-0.01418772432953119,-0.02128744497895241,-0.02375779300928116
1596059258.536924,66,0,9711.532711666667,0.03082275390625,-0.9979095458984375,-0.021759033203125,9711.523929666668,-0.03482535853981972,0.0288231261074543,0.0237058624625206
1596059258.58009,67,0,9711.562805666666,0.0395355224609375,-0.9972686767578125,-0.030609130859375,9711.554024666668,-0.03109213896095753,0.01907489076256752,-0.02392956800758839
1596059258.597026,68,0,9711.592900666667,0.0724945068359375,-1.005157470703125,-0.0311126708984375,9711.584118666668,-0.02598073333501816,0.04036393389105797,-0.007367102429270744
1596059258.637458,69,0,9711.622994666668,0.0460357666015625,-0.99920654296875,-0.029937744140625,9711.614213666668,-0.05119501054286957,0.00911653321236372,0.01946584321558475
1596059258.6572,70,0,9711.653089666666,0.054290771484375,-1.0010986328125,-0.028594970703125,9711.644307666667,-0.03729783743619919,0.02825906872749329,-0.01163961179554462
1596059258.697097,71,0,9711.683183666668,0.0425262451171875,-0.9991607666015625,-0.0360565185546875,9711.674402666667,-0.02868117950856686,0.09193605184555054,0.03190173953771591
1596059258.717415,72,0,9711.713278666668,0.0254364013671875,-0.9940185546875,-0.04400634765625,9711.704496666667,-0.0191089790314436,0.03236140310764313,-0.02273008041083813
1596059258.758886,73,0,9711.743372666668,0.0405120849609375,-0.9989166259765625,-0.0206756591796875,9711.734590666667,-0.02206535451114178,0.03310229256749153,-0.02185310050845146
1596059258.7776,74,0,9711.773466666667,0.039794921875,-0.9970855712890625,-0.0498046875,9711.764685666667,-0.04645511507987976,0.009973804466426373,-0.0253189392387867
1596059258.818388,75,0,9711.803561666668,0.072296142578125,-1.0023193359375,-0.0275421142578125,9711.794779666667,-0.007597732357680798,0.03646213561296463,-0.03264822438359261
1596059258.837849,76,0,9711.833655666667,0.051727294921875,-1.008102416992188,-0.026519775390625,9711.824874666667,-0.03713511675596237,0.01639042422175407,0.02186375297605991
1596059258.880984,77,0,9711.863750666667,-0.04107666015625,-0.97149658203125,-0.014617919921875,9711.854968666667,-0.05698791891336441,-0.1126634329557419,-0.03753113001585007
1596059258.897937,78,0,9711.893844666667,0.02874755859375,-0.9937591552734375,-0.03729248046875,9711.885063666667,-0.04147394001483917,-0.02890781499445438,-0.1233746632933617
1596059258.938449,79,0,9711.923939666667,0.1158294677734375,-1.004730224609375,-0.0705413818359375,9711.915157666668,-0.03460351750254631,0.1168997213244438,-0.06355633586645126
1596059258.958051,80,0,9711.954033666667,0.12530517578125,-1.02044677734375,-0.0382843017578125,9711.945251666668,0.02483371086418629,0.1499282419681549,0.002484196564182639
1596059259.000381,81,0,9711.984127666667,0.0484161376953125,-0.9891815185546875,-0.003662109375,9711.975346666668,-0.04852838814258575,0.06421094387769699,0.04613686725497246
1596059259.018307,82,0,9712.014222666667,0.0399169921875,-0.998321533203125,-0.0258331298828125,9712.005440666668,-0.03772234544157982,0.003944940399378538,-0.01630120910704136
1596059259.057946,83,0,9712.044316666666,0.045379638671875,-0.996734619140625,-0.017059326171875,9712.035535666668,-0.07310563325881958,0.01748524978756905,0.003879160387441516
1596059259.078559,84,0,9712.074411666666,0.0867462158203125,-1.012130737304688,-0.0343780517578125,9712.065629666668,-0.07231707125902176,0.04079163819551468,-0.02198546007275581
1596059259.118454,85,0,9712.104505666668,0.1707305908203125,-1.0050048828125,-0.040130615234375,9712.095724666668,-0.06442612409591675,0.03977297991514206,0.05089753493666649
1596059259.138747,86,0,9712.134599666668,0.1492767333984375,-1.030746459960938,-0.0336151123046875,9712.125818666667,-0.09405592828989029,-0.07413467764854431,0.1701174080371857
1596059259.180407,87,0,9712.164694666668,0.0888214111328125,-0.982086181640625,-0.0238037109375,9712.155912666667,-0.122431106865406,-0.1798331439495087,0.2219648808240891
1596059259.1989,88,0,9712.194788666668,0.164886474609375,-1.00885009765625,-0.0218658447265625,9712.186007666667,-0.07684870809316635,-0.0467403419315815,0.230707511305809
1596059259.240331,89,0,9712.224883666668,0.2320098876953125,-1.019149780273438,-0.0847625732421875,9712.216101666667,-0.064863421022892,-0.1082697510719299,0.4511038064956665
1596059259.259061,90,0,9712.254977666667,-0.0028076171875,-0.9920654296875,-0.0443878173828125,9712.246196666667,-0.1365218907594681,-0.4877821803092957,0.6152120232582092
1596059259.296979,91,0,9712.285072666667,-0.1815032958984375,-1.013534545898438,0.0205535888671875,9712.276290666667,-0.1475297957658768,-0.5529811382293701,0.3594180941581726
1596059259.319255,92,0,9712.315166666667,-0.0366973876953125,-0.97393798828125,0.040283203125,9712.306385666667,-0.2844162881374359,-0.1742024272680283,0.1311220675706863
1596059259.356011,93,0,9712.345260666667,-0.0113067626953125,-0.94012451171875,-0.114501953125,9712.336479666666,-0.2271545827388763,-0.02085521444678307,0.4773796200752258
1596059259.379474,94,0,9712.375355666667,-0.24884033203125,-1.018997192382812,-0.0844879150390625,9712.366573666668,-0.1023287698626518,-0.2716317772865295,0.308358907699585
1596059259.41826,95,0,9712.405450375001,-0.144317626953125,-0.9239959716796875,-0.1251983642578125,9712.396668666668,-0.2100041061639786,-0.02452238649129868,0.08477240800857544
1596059259.439668,96,0,9712.435545375001,-0.154266357421875,-0.9987335205078125,-0.131317138671875,9712.426763375001,0.0446670688688755,0.1759752929210663,0.07000891119241714
1596059259.478673,97,0,9712.465639375001,-0.0706787109375,-1.025344848632812,-0.1214752197265625,9712.456858375001,-0.1643463373184204,-0.001654622028581798,-0.06755694001913071
1596059259.499784,98,0,9712.495734375001,-0.2782135009765625,-0.9559173583984375,-0.1212921142578125,9712.486952375,-0.1063690483570099,0.02538578398525715,0.01586391776800156
1596059259.537764,99,0,9712.525828375001,-0.3404388427734375,-0.928802490234375,0.0601959228515625,9712.517047375,-0.1235576272010803,0.1810856312513351,-0.4264746308326721
1596059259.56008,100,0,9712.555923375001,0.0568389892578125,-0.9825439453125,-0.1196136474609375,9712.547141375,-0.003999801818281412,0.5945698618888855,-0.6048110723495483
1596059259.597557,101,0,9712.586017375001,0.114013671875,-1.078933715820312,-0.1923675537109375,9712.577235375,-0.04049735888838768,0.3998691141605377,-0.3048296868801117
1596059259.620242,102,0,9712.616111375,-0.07012939453125,-0.9165802001953125,-0.0194244384765625,9712.607330375,-0.1421946883201599,0.0680975615978241,-0.3245687484741211
1596059259.657275,103,0,9712.646206375,0.19158935546875,-1.024765014648438,-0.23663330078125,9712.637424375,0.01648629829287529,0.1370406746864319,-0.5376389622688293
1596059259.680431,104,0,9712.676300375,0.258575439453125,-1.05810546875,-0.1544342041015625,9712.667519375,0.06403277814388275,-0.1037018969655037,-0.1921380162239075
1596059259.717458,105,0,9712.706395375,0.1465301513671875,-0.9849853515625,-0.079010009765625,9712.697613375001,-0.05074600130319595,-0.5049124360084534,-0.1467273980379105
1596059259.740598,106,0,9712.736489375,-0.0296630859375,-0.9781341552734375,-0.0883941650390625,9712.727708375001,-0.03004072234034538,-0.4819695651531219,-0.01647830940783024
1596059259.778955,107,0,9712.766584375,-0.0118865966796875,-0.9750213623046875,-0.07220458984375,9712.757802375001,-0.01558135636150837,0.06284900009632111,-0.1611124575138092
1596059259.800678,108,0,9712.796678375,0.1784820556640625,-1.018630981445312,-0.1260986328125,9712.787897375001,0.1060792952775955,0.2015621513128281,-0.08770082145929337
1596059259.839887,109,0,9712.826772375001,0.0839385986328125,-1.01068115234375,-0.156097412109375,9712.817991375001,-0.1246950626373291,-0.1716702878475189,0.1000946387648582
1596059259.860991,110,0,9712.856867375001,-0.0976409912109375,-0.9642181396484375,0.05059814453125,9712.848085375001,0.04590783640742302,0.001857022172771394,0.09172166138887405
1596059259.897684,111,0,9712.886961375001,0.04296875,-1.00592041015625,-0.1717071533203125,9712.878180375001,-0.09894522279500961,0.03118055686354637,-0.1328840106725693
1596059259.921165,112,0,9712.917056375001,0.1226654052734375,-1.00433349609375,-0.1087493896484375,9712.908274375,0.00430233683437109,-0.09896093606948853,0.01137675810605288
1596059259.958415,113,0,9712.947150375001,-0.0200653076171875,-0.99114990234375,-0.0821685791015625,9712.938369375001,-0.06839503347873688,-0.212571918964386,0.04469050467014313
1596059259.981368,114,0,9712.977245375001,0.0606536865234375,-1.00970458984375,-0.04974365234375,9712.968463375,0.01224361639469862,-0.0009408948244526982,0.2465778291225433
1596059260.018379,115,0,9713.007339375001,0.0234375,-0.9955902099609375,-0.1110076904296875,9712.998558375,-0.04081613942980766,0.09746317565441132,0.146598756313324
1596059260.041591,116,0,9713.037434375001,0.0497589111328125,-0.964080810546875,-0.081451416015625,9713.028652375,0.01498427614569664,-0.0334322601556778,0.05997651815414429
1596059260.082456,117,0,9713.067528375001,0.0486907958984375,-1.024185180664062,-0.108795166015625,9713.058746375,-0.06849011033773422,-0.01186997536569834,-0.03006362728774548
1596059260.10169,118,0,9713.097622375,-0.03271484375,-0.9925384521484375,-0.0975189208984375,9713.088841375,-0.0816357433795929,0.01583915017545223,0.1106910929083824
1596059260.139425,119,0,9713.127717375,0.007354736328125,-0.9703369140625,-0.1046600341796875,9713.118935375001,-0.05572238564491272,0.03720036521553993,-0.119293637573719
1596059260.161941,120,0,9713.157811375,0.0774078369140625,-1.012176513671875,-0.089874267578125,9713.149030375,-0.01989700831472874,-0.02750246413052082,-0.07614616304636002
1596059260.198659,121,0,9713.187906375,0.0197601318359375,-0.991119384765625,-0.143768310546875,9713.179124375001,-0.04368862509727478,-0.2076511979103088,0.04366199299693108
1596059260.222163,122,0,9713.218000375,-0.00726318359375,-0.9819793701171875,-0.0849609375,9713.209219375001,0.005341768264770508,-0.1317276656627655,-0.05229649320244789
1596059260.260147,123,0,9713.248095375,0.0700225830078125,-1.008453369140625,-0.09588623046875,9713.239313375001,-0.01788206212222576,-0.05559375509619713,-0.04041826352477074
1596059260.2823,124,0,9713.278189375,0.0489654541015625,-1.011825561523438,-0.12451171875,9713.269408375001,-0.04718908295035362,-0.06502800434827805,0.06987308710813522
1596059260.319628,125,0,9713.308284375,-0.09393310546875,-0.97564697265625,-0.083526611328125,9713.299502375001,0.04100575670599937,-0.171886533498764,0.05074333772063255
1596059260.342513,126,0,9713.338378375001,0.027313232421875,-1.00213623046875,-0.11553955078125,9713.329597375001,-0.004614459350705147,0.2662463188171387,-0.07260389626026154
1596059260.378843,127,0,9713.368472375001,0.0261383056640625,-0.9788970947265625,-0.12518310546875,9713.359691375001,-0.07915767282247543,-0.009957026690244675,0.0222400575876236
1596059260.402678,128,0,9713.398567375001,0.069580078125,-0.9859466552734375,-0.1251678466796875,9713.389785375,0.1115233302116394,-0.116636335849762,-0.05375750362873077
1596059260.438841,129,0,9713.428660791667,0.0627899169921875,-1.0511474609375,-0.0264892578125,9713.419879791667,-0.05086371302604675,0.1418253183364868,0.120069682598114
