loggingTime,loggingSample,identifierForVendor,accelerometerTimestamp_sinceReboot,accelerometerAccelerationX,accelerometerAccelerationY,accelerometerAccelerationZ,gyroTimestamp_sinceReboot,gyroRotationX,gyroRotationY,gyroRotationZ
1595776450.753525,1,0,462114.108479375,-0.3401947021484375,-0.8981475830078125,-0.1196136474609375,462114.1009543751,0.01325774844735861,-0.01953561790287495,-0.06871381402015686
1595776450.770214,2,0,462114.1385793751,-0.305450439453125,-0.9435577392578125,-0.113739013671875,462114.131054375,0.04018230736255646,0.1145806387066841,0.02314127236604691
1595776450.812116,3,0,462114.168680375,-0.3177642822265625,-0.9456329345703125,-0.1473846435546875,462114.161155375,-0.02425607107579708,-0.02212660759687424,0.05088635161519051
1595776450.830327,4,0,462114.198781375,-0.3259429931640625,-0.919464111328125,-0.1714019775390625,462114.1912563751,-0.02047278359532356,0.06302983313798904,0.03417341783642769
1595776450.873261,5,0,462114.2288823751,-0.311798095703125,-0.9471282958984375,-0.1634674072265625,462114.221356375,-0.01206917967647314,0.1049676910042763,0.02079236321151257
1595776450.890591,6,0,462114.258982375,-0.2930908203125,-0.9385528564453125,-0.146942138671875,462114.251457375,-0.01471529621630907,0.005246161017566919,-0.06616943329572678
1595776450.936802,7,0,462114.289083375,-0.3124542236328125,-0.926910400390625,-0.1588897705078125,462114.281558375,-0.00755059439688921,-0.07008587568998337,-0.05169408768415451
1595776450.95068,8,0,462114.3191826667,-0.3182220458984375,-0.93438720703125,-0.1583251953125,462114.311658375,-0.0008748483960516751,-0.09128464013338089,-0.06667010486125946
1595776450.993461,9,0,462114.3492836667,-0.326019287109375,-0.9246978759765625,-0.14227294921875,462114.3417586667,0.004777178168296814,-0.05193377286195755,-0.07257380336523056
1595776451.010833,10,0,462114.3793846667,-0.322296142578125,-0.9323883056640625,-0.16033935546875,462114.3718596667,-0.00153584498912096,-0.03736255317926407,-0.09172006696462631
1595776451.059063,11,0,462114.4094846667,-0.322296142578125,-0.9302520751953125,-0.158111572265625,462114.4019596667,0.05543636158108711,0.1221567988395691,-0.04849696159362793
1595776451.071142,12,0,462114.4395856667,-0.3259429931640625,-0.9161376953125,-0.1588592529296875,462114.4320606667,0.03562430664896965,0.2742960155010223,0.03068733960390091
1595776451.112229,13,0,462114.4696866667,-0.3810272216796875,-0.9505767822265625,-0.1232757568359375,462114.4621616667,0.02032391354441643,0.3235714137554169,0.05442915484309196
1595776451.131355,14,0,462114.4997866667,-0.30926513671875,-0.9669036865234375,-0.143341064453125,462114.4922616667,-0.03660621494054794,0.7452366352081299,0.1664233356714249
1595776451.173519,15,0,462114.5298876667,-0.3568115234375,-0.9674835205078125,-0.2126007080078125,462114.5223626667,0.004822718445211649,0.300620824098587,0.3797689080238342
1595776451.191547,16,0,462114.5599886667,-0.4239654541015625,-0.89208984375,-0.213775634765625,462114.5524636667,0.01780403032898903,-0.254979282617569,0.268191784620285
1595776451.23469,17,0,462114.5900886667,-0.1228179931640625,-0.6342620849609375,-0.1239166259765625,462114.5825636667,0.1748554259538651,0.1302107274532318,-0.1123795360326767
1595776451.251753,18,0,462114.6201896667,-0.2657928466796875,-1.053665161132812,-0.0942230224609375,462114.6126646667,0.02933471836149693,0.1477609574794769,-0.1953223645687103
1595776451.292219,19,0,462114.6502906667,-0.378875732421875,-0.8636322021484375,-0.131195068359375,462114.6427656667,0.1786909103393555,0.2640580236911774,0.1572775095701218
1595776451.311909,20,0,462114.6803906667,-0.3652191162109375,-0.9074554443359375,-0.199188232421875,462114.6728656667,0.2780324220657349,0.7252301573753357,0.00618066405877471
1595776451.352887,21,0,462114.7104916667,-0.313934326171875,-0.8757476806640625,-0.2187347412109375,462114.7029666667,0.3968903720378876,0.726102352142334,0.2386549115180969
1595776451.372138,22,0,462114.7405926667,-0.2845611572265625,-0.976959228515625,-0.0825958251953125,462114.7330666667,0.2919615507125854,0.4548268914222717,0.09840060770511627
1595776451.414099,23,0,462114.7706926667,-0.162506103515625,-1.029037475585938,-0.0059814453125,462114.7631676667,0.2489088922739029,0.1148237884044647,0.1572522073984146
1595776451.432241,24,0,462114.8007936667,-0.2106475830078125,-1.001190185546875,-0.05816650390625,462114.7932686667,0.02977041155099869,0.111571803689003,0.1594067066907883
1595776451.473933,25,0,462114.8308946667,-0.23065185546875,-0.906585693359375,-0.2104339599609375,462114.8233686667,0.1061373576521873,0.1811679303646088,0.3960248231887817
1595776451.492363,26,0,462114.8609946667,-0.2316131591796875,-0.917877197265625,-0.1850128173828125,462114.8534696667,-0.05844440311193466,-0.1197357252240181,0.3110151290893555
1595776451.533967,27,0,462114.8910956667,-0.2739105224609375,-0.9449615478515625,-0.2406158447265625,462114.8835706667,0.06407085806131363,-0.2072919309139252,0.5138910412788391
1595776451.552819,28,0,462114.9211966667,-0.290008544921875,-1.1588134765625,-0.223175048828125,462114.9136706667,0.1344765871763229,-0.1508377194404602,0.5573881864547729
1595776451.595223,29,0,462114.9512966667,-0.35723876953125,-0.763824462890625,-0.2131500244140625,462114.9437716667,0.1192150712013245,0.1207274794578552,0.700999915599823
1595776451.61292,30,0,462114.9813976667,-0.57867431640625,-0.6977081298828125,-0.4114837646484375,462114.9738726667,0.7285218238830566,0.2164265811443329,0.6383245587348938
1595776451.656801,31,0,462115.0114976667,-0.2620849609375,-0.79754638671875,-0.2950439453125,462115.0039726667,0.3369636535644531,0.07128110527992249,0.4501237571239471
1595776451.673185,32,0,462115.0415986667,-0.5217742919921875,-0.8578338623046875,-0.045928955078125,462115.0340736667,0.6653239727020264,-0.4764216840267181,0.1626389771699905
1595776451.712608,33,0,462115.0716996667,-0.4364166259765625,-0.9104766845703125,0.026824951171875,462115.0641746667,0.3538771271705627,-0.2928353250026703,0.3428977131843567
1595776451.73336,34,0,462115.1017996667,-0.4422607421875,-0.884979248046875,0.0453643798828125,462115.0942746667,0.1975871175527573,-0.5895106792449951,0.180385485291481
1595776451.771367,35,0,462115.1319006667,-0.551116943359375,-0.89947509765625,0.060150146484375,462115.1243756667,0.2489208728075027,-0.690531313419342,-0.3055117130279541
1595776451.793453,36,0,462115.1620016667,-0.6981201171875,-0.944732666015625,0.1408233642578125,462115.1544766667,0.02745426073670387,-0.8240848183631897,-0.08669841289520264
1595776451.835626,37,0,462115.1921016667,-0.8390350341796875,-0.85272216796875,0.1316375732421875,462115.1845766667,0.168656662106514,-0.8234012126922607,-0.2801831960678101
1595776451.853698,38,0,462115.2222026667,-0.8486785888671875,-0.824188232421875,0.1298065185546875,462115.2146776667,-0.07964902371168137,-0.5252922773361206,-0.6885712146759033
1595776451.8942,39,0,462115.2523036667,-0.6827239990234375,-0.668060302734375,-0.2273101806640625,462115.2447776667,0.2883404493331909,-0.1479630917310715,-0.4691203534603119
1595776451.913906,40,0,462115.2824036667,-0.3117828369140625,-1.1451416015625,-0.15374755859375,462115.2748786667,0.3936591446399689,0.855068564414978,-0.5497696399688721
1595776451.955657,41,0,462115.3125046667,-0.146240234375,-0.8210906982421875,-0.0689239501953125,462115.3049796667,0.7584978342056274,1.325538039207458,-0.1251368820667267
1595776451.974103,42,0,462115.3426066667,-0.0417633056640625,-0.9186248779296875,0.12213134765625,462115.3350806667,0.5794673562049866,0.9703820943832397,0.03634043037891388
1595776452.013316,43,0,462115.3727066667,-0.060455322265625,-0.9910888671875,0.30194091796875,462115.3651816667,0.5574504733085632,0.3435184955596924,-0.138135239481926
1595776452.034198,44,0,462115.4028076667,-0.3321533203125,-1.062591552734375,0.0333404541015625,462115.3952826667,0.5650066733360291,0.0500812754034996,0.03390896320343018
1595776452.073009,45,0,462115.4329076667,-0.321502685546875,-0.828216552734375,0.1380767822265625,462115.4253826667,0.0339992456138134,0.2263234108686447,0.1952637732028961
1595776452.094505,46,0,462115.4630086667,-0.334716796875,-1.004104614257812,0.077911376953125,462115.4554836667,0.4205277860164642,0.04400980100035667,0.2994618117809296
1595776452.133627,47,0,462115.4931096667,-0.1953125,-0.871734619140625,0.0561676025390625,462115.4855846667,-0.2106802761554718,0.1091746911406517,0.4382814764976501
1595776452.154718,48,0,462115.5232096667,-0.259033203125,-0.8709564208984375,0.14263916015625,462115.5156846667,-0.1452147215604782,-0.390999972820282,0.6088614463806152
1595776452.194468,49,0,462115.5533106667,-0.2222747802734375,-0.912078857421875,0.394989013671875,462115.5457856667,-0.209658682346344,-0.9496235847473145,0.2925056219100952
1595776452.21495,50,0,462115.5834116667,-0.1989288330078125,-1.0665283203125,0.395233154296875,462115.5758866667,-0.2524144053459167,-0.7631032466888428,0.619862973690033
1595776452.253607,51,0,462115.6135116667,-0.4033203125,-0.666168212890625,0.3601226806640625,462115.6059866667,-0.710629940032959,-1.476935029029846,0.5999103188514709
1595776452.275212,52,0,462115.6436126667,-0.55242919921875,-0.983795166015625,0.4858245849609375,462115.6360876667,-0.7799069881439209,-1.523958444595337,0.3417043387889862
1595776452.315214,53,0,462115.6737136667,-0.26611328125,-1.007644653320312,0.5870208740234375,462115.6661876667,-1.162483692169189,-1.059500575065613,1.123947143554688
1595776452.335312,54,0,462115.7038136667,-0.7700347900390625,-0.4407501220703125,0.38037109375,462115.6962886667,-1.599231123924255,-1.558505296707153,0.7042652368545532
1595776452.373954,55,0,462115.7339146667,-0.86627197265625,-1.156082153320312,0.35260009765625,462115.7263896667,-1.443505167961121,-1.465045690536499,0.28071129322052
1595776452.395507,56,0,462115.7640146667,-0.6578216552734375,-0.8978271484375,0.2146148681640625,462115.7564896667,-2.300545692443848,-0.8189225792884827,1.127117991447449
1595776452.436729,57,0,462115.7941156667,-1.046310424804688,-0.1667633056640625,-0.122161865234375,462115.7865906667,-2.407305002212524,-1.637722611427307,0.4096690118312836
1595776452.455789,58,0,462115.8242166667,-0.896148681640625,-0.832244873046875,-0.66961669921875,462115.8166916667,-1.582504391670227,-1.796823263168335,-0.1867600232362747
1595776452.495471,59,0,462115.8543166667,-0.8554534912109375,-0.6443939208984375,-0.6478729248046875,462115.8467916667,-1.261134624481201,-0.855890691280365,0.6177074313163757
1595776452.51601,60,0,462115.8844176667,-0.923187255859375,-0.34637451171875,-0.3912811279296875,462115.8768926667,-1.481125831604004,-1.055183053016663,0.1455982178449631
1595776452.552773,61,0,462115.9145186667,-0.8603668212890625,-0.694793701171875,0.13568115234375,462115.9069926667,-0.2544434666633606,-1.281462788581848,-0.413038969039917
1595776452.576009,62,0,462115.9446186667,-0.01409912109375,-1.137542724609375,0.132781982421875,462115.9370936667,-1.367039680480957,-2.015592098236084,-0.09911033511161804
1595776452.613551,63,0,462115.9747196667,-0.5402679443359375,-0.399169921875,-0.12725830078125,462115.9671946667,-1.211262345314026,-4.494568824768066,-0.2585021257400513
1595776452.636352,64,0,462116.0048196667,-0.5330963134765625,-1.000823974609375,-0.025421142578125,462115.9972946667,-1.326080083847046,-3.543612718582153,-0.699350893497467
1595776452.671379,65,0,462116.0349206667,-0.7711181640625,-0.7257232666015625,-0.164154052734375,462116.0273956667,-0.4667719602584839,-1.425187230110168,0.05755730345845222
1595776452.696564,66,0,462116.0650216667,-0.444305419921875,-1.028488159179688,-0.1408843994140625,462116.0574966667,-0.1512283980846405,0.04218553751707077,-0.2963283360004425
1595776452.733826,67,0,462116.0951216667,-0.4075469970703125,-0.9087066650390625,-0.0890045166015625,462116.0875966667,-0.4409638047218323,0.1363261491060257,-0.05386616289615631
1595776452.756574,68,0,462116.1252226667,-0.785125732421875,-0.5360565185546875,-0.088958740234375,462116.1176976667,-0.287548691034317,-0.2458417266607285,0.1634741425514221
1595776452.795093,69,0,462116.1553236667,-0.6360321044921875,-0.904144287109375,0.0029296875,462116.1477976667,0.1234044954180717,-0.1378801017999649,-0.167011097073555
1595776452.816977,70,0,462116.1854236667,-0.4470367431640625,-1.022628784179688,-0.0020599365234375,462116.1778986667,-0.2996650040149689,0.6823777556419373,0.1335069239139557
1595776452.85605,71,0,462116.2155246667,-0.8874664306640625,-0.433929443359375,-0.2874755859375,462116.2079996667,0.1970185190439224,0.2390948683023453,0.05570400878787041
1595776452.877006,72,0,462116.2456246667,-0.436737060546875,-1.144012451171875,0.09521484375,462116.2380996667,0.1067022085189819,0.5359579920768738,-0.3256713151931763
1595776452.914407,73,0,462116.2757256667,-0.2861328125,-0.7811431884765625,-0.0338592529296875,462116.2682006667,-0.07683779299259186,0.6552843451499939,0.3407570421695709
1595776452.937372,74,0,462116.3058266667,-0.757232666015625,-0.614990234375,-0.065460205078125,462116.2983016667,0.05505233258008957,-0.4204201996326447,-0.2897127866744995
1595776452.977328,75,0,462116.335926,-0.51318359375,-1.053314208984375,0.1512603759765625,462116.328401,-0.02380439825356007,-0.07368513941764832,-0.2337262034416199
1595776452.997532,76,0,462116.366027,-0.433990478515625,-0.8625946044921875,-0.02545166015625,462116.358502,-0.03243410587310791,0.3929339647293091,0.352298378944397
1595776453.034705,77,0,462116.3961280001,-0.7350311279296875,-0.6554412841796875,-0.1062774658203125,462116.388602,-0.1248196959495544,-0.4900229573249817,-0.2252088785171509
1595776453.057724,78,0,462116.426228,-0.5573883056640625,-1.024322509765625,0.06201171875,462116.418703,0.02166588045656681,-0.08625659346580505,-0.1979122757911682
1595776453.094397,79,0,462116.456329,-0.72479248046875,-0.70880126953125,-0.1443939208984375,462116.448804,-0.07512377947568893,0.1965301036834717,-0.03813114017248154
1595776453.117879,80,0,462116.486429,-0.5982513427734375,-0.798187255859375,-0.073699951171875,462116.478904,0.02213219925761223,0.1465811878442764,-0.2436933517456055
1595776453.152683,81,0,462116.51653,-0.4190673828125,-0.938934326171875,-0.0492095947265625,462116.509005,0.140057772397995,0.5280190706253052,-0.009724265895783901
1595776453.178147,82,0,462116.546631,-0.56890869140625,-0.7008819580078125,-0.1297149658203125,462116.539105,0.1437792778015137,0.2924150824546814,-0.1571070551872253
1595776453.214223,83,0,462116.576731,-0.628631591796875,-0.8347930908203125,0.0005950927734375,462116.569206,0.1630264669656754,0.2150409370660782,-0.3421533405780792
1595776453.238359,84,0,462116.606832,-0.393310546875,-0.9135894775390625,0.0782012939453125,462116.5993070001,0.1157228723168373,0.620309054851532,-0.07586812973022461
1595776453.271418,85,0,462116.6369320001,-0.452423095703125,-0.767547607421875,-0.087921142578125,462116.629407,0.1490494012832642,0.4170427620410919,-0.1382473558187485
1595776453.29857,86,0,462116.667033,-0.3729095458984375,-0.824859619140625,-0.071533203125,462116.659508,0.1937340497970581,0.2533704936504364,-0.05628244578838348
1595776453.332748,87,0,462116.697134,-0.4486083984375,-0.9051971435546875,-0.0331268310546875,462116.689608,0.1548574864864349,0.4728666245937347,0.02684919163584709
1595776453.358869,88,0,462116.727234,-0.318511962890625,-0.9108428955078125,0.07647705078125,462116.719709,-0.07635282725095749,0.220544621348381,0.1237730756402016
1595776453.392766,89,0,462116.757335,-0.740631103515625,-0.859405517578125,0.0067596435546875,462116.74981,0.01603569090366364,0.1182422190904617,0.0185457207262516
1595776453.418945,90,0,462116.787435,-0.5756378173828125,-0.8585968017578125,0.0618133544921875,462116.77991,-0.2452041655778885,0.4829727709293365,0.1119334623217583
1595776453.454465,91,0,462116.817536,-0.52886962890625,-0.8787689208984375,0.01666259765625,462116.810011,-0.05146611854434013,0.5196834206581116,-0.02810646966099739
1595776453.479182,92,0,462116.847637,-0.7415924072265625,-0.9294891357421875,-0.0248870849609375,462116.840112,-0.05053428187966347,0.5730550289154053,-0.1742088198661804
1595776453.517407,93,0,462116.877737,-0.818145751953125,-0.7880401611328125,-0.0866546630859375,462116.870212,-0.02689819224178791,0.8993588089942932,-0.2112544476985931
1595776453.539342,94,0,462116.907838,-0.808746337890625,-0.693115234375,-0.2494659423828125,462116.900313,0.03945712745189667,1.264661192893982,-0.4498494565486908
1595776453.574481,95,0,462116.937938,-0.6527099609375,-1.025497436523438,-0.149139404296875,462116.9304130001,0.3453230559825897,2.162129163742065,-0.6723240613937378
1595776453.599595,96,0,462116.968039,-0.7471466064453125,-0.87799072265625,0.00311279296875,462116.960514,0.02950649335980415,2.285790681838989,-0.6449736952781677
1595776453.633591,97,0,462116.99814,-0.559783935546875,-0.746185302734375,0.094573974609375,462116.990615,-0.1006917208433151,2.421754598617554,-0.5732076168060303
1595776453.659846,98,0,462117.02824,-0.1139678955078125,-0.7944793701171875,0.0251617431640625,462117.020715,-0.05638311430811882,2.04906702041626,-0.5403569936752319
1595776453.694446,99,0,462117.0583410001,-0.082550048828125,-0.944854736328125,-0.0057830810546875,462117.050816,-0.4042311012744904,0.8749301433563232,-0.7569606304168701
1595776453.720002,100,0,462117.088442,-0.3485107421875,-0.8349151611328125,-0.0758056640625,462117.080916,-0.3751786649227142,0.3005345165729523,-0.8157826662063599
1595776453.75285,101,0,462117.118542,-0.092041015625,-1.094650268554688,-0.155120849609375,462117.111017,-0.4312291741371155,1.092133641242981,-0.454279899597168
1595776453.780164,102,0,462117.1486430001,-0.075836181640625,-0.7761383056640625,-0.473541259765625,462117.141118,-0.5183584690093994,0.635026216506958,-0.410758763551712
1595776453.815377,103,0,462117.178743,-0.1478729248046875,-0.8228607177734375,-0.41473388671875,462117.171218,-0.3559312224388123,0.05371303111314774,-0.3906764090061188
1595776453.840397,104,0,462117.208844,-0.1297454833984375,-1.038543701171875,-0.4667205810546875,462117.201319,-0.2827033400535583,0.3431973159313202,-0.1257624626159668
1595776453.873204,105,0,462117.238945,-0.1555023193359375,-0.8611297607421875,-0.5749359130859375,462117.231419,-0.07898269593715668,0.709601104259491,-0.03660914301872253
1595776453.900494,106,0,462117.269045,-0.2221221923828125,-0.7704010009765625,-0.4217376708984375,462117.26152,-0.09101486206054688,0.5354218482971191,-0.02217347919940948
1595776453.934975,107,0,462117.299146,-0.1952667236328125,-0.958343505859375,-0.262054443359375,462117.291621,0.1071807816624641,-0.05951099842786789,-0.1357916593551636
1595776453.960789,108,0,462117.3292465,-0.140411376953125,-0.88177490234375,-0.35455322265625,462117.3217215,0.1882189065217972,0.2789943516254425,0.2182146310806274
1595776453.992358,109,0,462117.3593475,-0.107025146484375,-0.9725799560546875,-0.404052734375,462117.3518225,0.09986188262701035,0.1602471917867661,0.1534862220287323
1595776454.02102,110,0,462117.3894485,-0.193634033203125,-0.82904052734375,-0.293548583984375,462117.3819225,-0.2387875467538834,-0.629128634929657,0.2007986158132553
1595776454.052432,111,0,462117.4195485,-0.6265869140625,-0.90252685546875,-0.318572998046875,462117.4120235,-0.01131790224462748,-0.25777268409729,-0.1924168467521667
1595776454.08115,112,0,462117.4496495,-0.3213043212890625,-0.94091796875,-0.3895721435546875,462117.4421245001,0.03108255192637444,0.4251824617385864,0.2479671984910965
1595776454.112501,113,0,462117.4797495001,-0.0233001708984375,-0.9639739990234375,-0.35595703125,462117.4722245,-0.192973718047142,0.3162503838539124,0.1298093944787979
1595776454.141395,114,0,462117.5098505,-0.1881256103515625,-0.8604583740234375,-0.1472015380859375,462117.5023255,-0.1601342707872391,-0.671857476234436,-0.12528096139431
1595776454.172803,115,0,462117.5399505,-0.4905548095703125,-0.9702606201171875,-0.2118072509765625,462117.5324255,-0.01402953267097473,-0.4006741940975189,-0.1221453472971916
1595776454.201599,116,0,462117.5700515,-0.3015899658203125,-0.812530517578125,-0.400299072265625,462117.5625265,-0.1043935194611549,0.05073268711566925,-0.5275564789772034
1595776454.234348,117,0,462117.6001525,-0.3664093017578125,-0.8791046142578125,-0.38848876953125,462117.5926275,0.01665674149990082,0.01931510865688324,-0.02768995054066181
1595776454.261856,118,0,462117.6302525,-0.259185791015625,-0.951385498046875,-0.2904510498046875,462117.6227275,-0.01714329980313778,0.1411784291267395,0.09171340614557266
1595776454.293879,119,0,462117.6603535,-0.306976318359375,-0.856903076171875,-0.4012908935546875,462117.6528285,-0.08684248477220535,-0.06755374372005463,0.1191620752215385
1595776454.322034,120,0,462117.6904535,-0.2889404296875,-0.890594482421875,-0.35723876953125,462117.6829285001,0.003863714169710875,-0.06842166930437088,-0.09009633958339691
1595776454.355333,121,0,462117.7205545,-0.266021728515625,-0.9033355712890625,-0.356414794921875,462117.7130295,0.1073333770036697,0.2497802674770355,-0.02725905179977417
1595776454.382166,122,0,462117.7506555,-0.2337646484375,-0.949920654296875,-0.3455047607421875,462117.7431305,0.06505809724330902,0.3017609119415283,0.1166105046868324
1595776454.418124,123,0,462117.7807555,-0.2547607421875,-0.9123992919921875,-0.3162078857421875,462117.7732305001,-0.03148761764168739,0.2090341746807098,0.0524568147957325
1595776454.44243,124,0,462117.8108565,-0.2938690185546875,-0.891510009765625,-0.320343017578125,462117.8033315,0.003543602069839835,0.1460304409265518,0.136414036154747
1595776454.475184,125,0,462117.8409565,-0.23907470703125,-0.9229278564453125,-0.2794036865234375,462117.8334315,-0.03012141771614552,0.2558525502681732,0.04819469153881073
1595776454.502608,126,0,462117.8710575,-0.2327117919921875,-0.8982391357421875,-0.28948974609375,462117.8635325001,0.05684810131788254,0.1479295492172241,-0.01312432438135147
1595776454.535471,127,0,462117.9011585001,-0.24993896484375,-0.9185028076171875,-0.327392578125,462117.8936325,0.0419200211763382,0.219949409365654,-0.08130071312189102
1595776454.562819,128,0,462117.9312585,-0.29022216796875,-0.881561279296875,-0.3931427001953125,462117.9237335,0.04244972392916679,0.2051624655723572,0.001319862669333816
1595776454.5948,129,0,462117.9613595,-0.2903594970703125,-0.9075469970703125,-0.381927490234375,462117.9538345,-0.01930498890578747,0.12333844602108,0.04715899005532265
1595776454.622986,130,0,462117.9914595,-0.2641448974609375,-0.891204833984375,-0.3072357177734375,462117.9839345,-0.01352832559496164,0.02045281045138836,-0.03541072085499763
1595776454.654159,131,0,462118.0215605,-0.24078369140625,-0.9152679443359375,-0.284576416015625,462118.0140355,0.07040625810623169,-0.02624412067234516,-0.01951883919537067
1595776454.683075,132,0,462118.0516615,-0.2352752685546875,-0.9360809326171875,-0.3241119384765625,462118.0441355,-0.01412247680127621,0.06847013533115387,-0.04920243471860886
1595776454.713327,133,0,462118.0817615,-0.2566070556640625,-0.8501129150390625,-0.3265838623046875,462118.0742365,-0.07042303681373596,-0.4748903512954712,-0.05817355960607529
1595776454.743615,134,0,462118.1118625,-0.30889892578125,-0.94366455078125,-0.3675537109375,462118.1043375,-0.09502851217985153,-0.2668681740760803,-0.0255516991019249
