loggingTime,loggingSample,identifierForVendor,accelerometerTimestamp_sinceReboot,accelerometerAccelerationX,accelerometerAccelerationY,accelerometerAccelerationZ,gyroTimestamp_sinceReboot,gyroRotationX,gyroRotationY,gyroRotationZ
1595776176.386992,1,0,461839.74744875,-0.1468353271484375,-0.8931427001953125,-0.4159088134765625,461839.72613175,0.03245541080832481,-0.003835218260064721,0.0547143779695034
1595776176.409548,2,0,461839.7775497501,-0.146728515625,-0.9016876220703125,-0.3927459716796875,461839.75623275,0.03698544949293137,-0.0890883281826973,-0.09404154121875763
1595776176.439421,3,0,461839.80765075,-0.0784912109375,-0.9333953857421875,-0.3860931396484375,461839.78633375,0.02889822795987129,0.1439025700092316,-0.06719022244215012
1595776176.470732,4,0,461839.83775275,-0.138763427734375,-0.8991851806640625,-0.4119873046875,461839.81643475,0.06666851043701172,-0.07921066880226135,-0.01823785901069641
1595776176.49966,5,0,461839.86785375,-0.115142822265625,-0.9142913818359375,-0.3470916748046875,461839.84653575,0.06019622832536697,-0.1338488757610321,-0.07044567167758942
1595776176.52982,6,0,461839.89795475,-0.1006317138671875,-0.9530181884765625,-0.3753509521484375,461839.87663675,0.05897437036037445,0.2059299945831299,0.02671949565410614
1595776176.560107,7,0,461839.92805575,-0.2259521484375,-0.890289306640625,-0.4152069091796875,461839.90673775,0.08048631995916367,-0.1395277976989746,-0.09931593388319016
1595776176.590044,8,0,461839.95815675,-0.16693115234375,-0.892791748046875,-0.404022216796875,461839.93683875,-0.0329398401081562,0.05528669059276581,-0.3116556107997894
1595776176.620159,9,0,461839.9882577501,0.0840911865234375,-0.9398651123046875,-0.4380340576171875,461839.96694075,0.1642962694168091,0.4835890233516693,-0.1665815263986588
1595776176.65024,10,0,461840.01835875,-0.0268402099609375,-0.86358642578125,-0.4059295654296875,461839.99704175,0.04735846072435379,0.1695229858160019,-0.2750233113765717
1595776176.68027,11,0,461840.04845975,-0.068695068359375,-0.869964599609375,-0.4781341552734375,461840.02714275,-0.09367536008358002,-0.4992769062519073,-0.691805899143219
1595776176.710276,12,0,461840.0785602917,-0.554718017578125,-0.9940643310546875,-0.3625946044921875,461840.05724375,0.5757114887237549,-0.114806741476059,1.056372880935669
1595776176.740428,13,0,461840.1086612917,-0.0714263916015625,-0.8900909423828125,-0.4110870361328125,461840.0873442917,0.05646514147520065,0.5895231962203979,-0.6164930462837219
1595776176.770876,14,0,461840.1387622917,-0.26617431640625,-0.8067626953125,-0.48480224609375,461840.1174452917,0.4049602746963501,-0.09666928648948669,-0.3211947977542877
1595776176.800659,15,0,461840.1688632917,-0.0951995849609375,-0.89117431640625,-0.4265899658203125,461840.1475462917,0.1630160808563232,-0.01111603435128927,-0.6962184906005859
1595776176.830711,16,0,461840.1989652917,-0.060211181640625,-0.9275360107421875,-0.4665985107421875,461840.1776472917,0.4033360183238983,-0.04857472702860832,-0.5939024686813354
1595776176.860914,17,0,461840.2290662917,0.0066375732421875,-0.904022216796875,-0.3714599609375,461840.2077482917,0.2369955033063889,-0.4854561686515808,-0.7543206810951233
1595776176.891067,18,0,461840.2591672917,0.1231231689453125,-0.8851470947265625,-0.26171875,461840.2378492917,0.3212917447090149,0.1388803869485855,-0.8679050207138062
1595776176.921183,19,0,461840.2892682917,-0.0340118408203125,-0.9226226806640625,-0.4683380126953125,461840.2679502917,0.6618815660476685,-0.1704745292663574,-1.08101761341095
1595776176.953887,20,0,461840.3193692917,0.0676422119140625,-0.7060089111328125,-0.193115234375,461840.2980512917,0.3301837742328644,-0.7716794013977051,-1.045283555984497
1595776176.981641,21,0,461840.3494702917,0.2297515869140625,-0.987823486328125,-0.032440185546875,461840.3281522917,0.3465012311935425,1.554893016815186,-0.3572926223278046
1595776177.011399,22,0,461840.3795712917,0.443328857421875,-1.258224487304688,-0.307830810546875,461840.3582542917,1.332932591438293,1.926971197128296,0.1271243989467621
1595776177.041595,23,0,461840.4096722917,0.061187744140625,-0.9363555908203125,-0.420135498046875,461840.3883552917,0.01991218887269497,0.08693596720695496,-0.1179042682051659
1595776177.071691,24,0,461840.4397732917,-0.2484588623046875,-0.8137054443359375,0.1730194091796875,461840.4184562917,0.06685173511505127,-0.115384116768837,-0.4985693097114563
1595776177.10168,25,0,461840.4698742917,0.1558685302734375,-1.173782348632812,-0.099700927734375,461840.4485572917,0.9146059155464172,0.9587283730506897,0.03856204077601433
1595776177.131845,26,0,461840.4999752917,0.212615966796875,-1.008804321289062,-0.0508880615234375,461840.4786582917,0.4442291259765625,0.9873896241188049,-0.06602109223604202
1595776177.161821,27,0,461840.5300762917,0.1589508056640625,-0.786712646484375,-0.0997161865234375,461840.5087592917,0.2090006172657013,0.4639154672622681,-0.3017047345638275
1595776177.192367,28,0,461840.5601772917,0.0148773193359375,-1.149276733398438,-0.212158203125,461840.5388602917,0.4302254021167755,0.41169273853302,-0.3977439105510712
1595776177.222305,29,0,461840.5902782917,0.19940185546875,-0.95440673828125,-0.131072998046875,461840.5689612917,0.2381065785884857,0.6559866666793823,-0.2520743310451508
1595776177.252253,30,0,461840.6203802917,0.48211669921875,-0.7533416748046875,-0.092254638671875,461840.5990622917,0.2491613477468491,0.3644022047519684,-0.498027890920639
1595776177.282326,31,0,461840.6504812917,0.06781005859375,-1.052993774414062,-0.1139984130859375,461840.6291632917,0.2247596085071564,0.3116713464260101,-0.2907674014568329
1595776177.312487,32,0,461840.6805822917,0.227447509765625,-0.8060455322265625,-0.1351470947265625,461840.6592642917,0.2610094845294952,0.05496604740619659,-0.4871470332145691
1595776177.342461,33,0,461840.7106832917,0.2392730712890625,-0.8898468017578125,-0.0910186767578125,461840.6893652917,0.2973650991916656,0.3591328561306,-0.3519268929958344
1595776177.372647,34,0,461840.7407842917,0.269287109375,-1.12615966796875,-0.0108184814453125,461840.7194662917,0.3353026211261749,0.2398123294115067,-0.3589544296264648
1595776177.402771,35,0,461840.7708852917,0.16766357421875,-0.981964111328125,-0.095489501953125,461840.7495672917,0.2018327265977859,-0.01715395227074623,-0.5478265881538391
1595776177.43289,36,0,461840.8009862917,0.3026275634765625,-0.99957275390625,-0.110809326171875,461840.7796682917,-0.1106612682342529,-0.1529184430837631,-0.5604614615440369
1595776177.46289,37,0,461840.8310872917,0.15570068359375,-0.9875946044921875,-0.1119537353515625,461840.8097702917,0.1389645487070084,0.01120951119810343,-0.4413664937019348
1595776177.493109,38,0,461840.8611882917,0.3267059326171875,-1.030838012695312,0.0522918701171875,461840.8398712917,-0.1510981768369675,0.2905439436435699,-0.3883717060089111
1595776177.523202,39,0,461840.8912892917,0.4215545654296875,-1.0711669921875,0.0048370361328125,461840.8699722917,0.09670816361904144,0.5818879008293152,0.01238050311803818
1595776177.553348,40,0,461840.9213902917,0.312652587890625,-0.8557891845703125,-0.0854034423828125,461840.9000732917,-0.09986267983913422,0.2493437826633453,-0.1104061380028725
1595776177.583345,41,0,461840.9514912917,0.353759765625,-1.0286865234375,0.0158233642578125,461840.9301742917,-0.3148796558380127,0.1168456599116325,-0.5577074885368347
1595776177.613448,42,0,461840.9815922917,0.25146484375,-0.9355926513671875,-0.096038818359375,461840.9602752917,-0.1428940445184708,0.03546877950429916,-0.2948790490627289
1595776177.643599,43,0,461841.0116932917,0.27423095703125,-0.8615570068359375,0.01171875,461840.9903762917,-0.5248989462852478,-0.2790449559688568,-0.3833985328674316
1595776177.673638,44,0,461841.0417942917,0.252105712890625,-1.101394653320312,0.1892547607421875,461841.0204772917,-0.5516533255577087,-0.2137271910905838,-0.7184572219848633
1595776177.703702,45,0,461841.071896,0.507904052734375,-0.881866455078125,-0.0590057373046875,461841.0505782917,-1.1162428855896,-0.1070588082075119,-0.5851713418960571
1595776177.733868,46,0,461841.1019980001,0.5760040283203125,-1.052413940429688,-0.01373291015625,461841.08068,-1.306876540184021,-0.3152471780776978,-0.5452681183815002
1595776177.763894,47,0,461841.132099,0.379302978515625,-0.933135986328125,0.1413421630859375,461841.1107810001,-1.457433581352234,-0.1015929356217384,-0.654602587223053
1595776177.794108,48,0,461841.1622,0.4152984619140625,-0.8800506591796875,-0.0233001708984375,461841.140882,-1.343123435974121,0.2747873663902283,-0.2739910781383514
1595776177.824087,49,0,461841.192301,0.5049896240234375,-0.86572265625,-0.19866943359375,461841.170983,-1.388743162155151,0.8740577101707458,0.3158820569515228
1595776177.857042,50,0,461841.222402,0.665802001953125,-0.82000732421875,-0.2921142578125,461841.201084,-1.282537579536438,0.9261898994445801,0.2271758913993835
1595776177.88436,51,0,461841.252503,0.53814697265625,-0.5301055908203125,-0.929962158203125,461841.231185,-1.18831467628479,0.538419783115387,0.2065081745386124
1595776177.914525,52,0,461841.282604,0.4188995361328125,-0.5696258544921875,-1.128738403320312,461841.261286,-0.8251655697822571,0.6056385040283203,0.3329622447490692
1595776177.944503,53,0,461841.312705,0.2948455810546875,-0.8459320068359375,-0.8346099853515625,461841.291387,-0.3343332409858704,0.2828586101531982,0.2698613107204437
1595776177.974638,54,0,461841.342806,0.4646148681640625,-0.6815032958984375,-0.799560546875,461841.3214890001,0.1000325903296471,-0.2785200476646423,0.1011884063482285
1595776178.004727,55,0,461841.372907,0.3442840576171875,-0.6746978759765625,-0.4859619140625,461841.35159,0.1775217950344086,-0.5739144086837769,0.05025092139840126
1595776178.037666,56,0,461841.4030080001,0.2194061279296875,-0.974609375,-0.0974578857421875,461841.381691,0.3325537145137787,-0.5937666893005371,-0.007384945638477802
1595776178.064894,57,0,461841.433109,0.2797698974609375,-0.855072021484375,-0.1473388671875,461841.411792,0.2042697817087173,-0.4205528199672699,-0.08610212802886963
1595776178.095149,58,0,461841.46321,0.2918548583984375,-0.894561767578125,-0.1915130615234375,461841.441893,-0.01422633975744247,-0.1997125744819641,-0.06935404241085052
1595776178.125106,59,0,461841.4933110001,0.5232696533203125,-0.943115234375,-0.2935638427734375,461841.471994,0.2086911648511887,0.2242892980575562,-0.02014707960188389
1595776178.155309,60,0,461841.523412,0.38690185546875,-0.8722686767578125,-0.3174285888671875,461841.502095,-0.1120767369866371,0.3484951257705688,0.1300016790628433
1595776178.186726,61,0,461841.553513,0.358642578125,-0.845123291015625,-0.41058349609375,461841.532196,0.09429667145013809,0.3787941932678223,0.1057938039302826
1595776178.218123,62,0,461841.583614,0.347808837890625,-0.7558135986328125,-0.5040435791015625,461841.562297,-0.06525836884975433,0.08514125645160675,0.007144995033740997
1595776178.245564,63,0,461841.613715,0.393829345703125,-0.79083251953125,-0.5394439697265625,461841.592398,0.2282568663358688,0.03933408856391907,0.001115331891924143
1595776178.278081,64,0,461841.643816,0.4392852783203125,-0.880584716796875,-0.406158447265625,461841.622499,0.224372386932373,-0.3245799541473389,-0.1466810554265976
1595776178.30585,65,0,461841.673917,0.4355926513671875,-0.81610107421875,-0.3719482421875,461841.6526,0.238737478852272,-0.4252460896968842,-0.1243879944086075
1595776178.337493,66,0,461841.704018,0.1805877685546875,-1.032394409179688,-0.1313934326171875,461841.682701,0.09889941662549973,-0.4937433898448944,-0.1599057763814926
1595776178.365939,67,0,461841.73412,0.33123779296875,-0.8621978759765625,-0.2266387939453125,461841.7128020001,0.1380316317081451,-0.02710219100117683,-0.04228274151682854
1595776178.398137,68,0,461841.764221,0.4842376708984375,-0.8006439208984375,-0.227874755859375,461841.742903,0.02910515479743481,0.139818087220192,-0.05924068763852119
1595776178.426272,69,0,461841.794322,0.4884033203125,-0.9240875244140625,-0.33056640625,461841.773004,0.1275337189435959,0.2285580784082413,0.04353948682546616
1595776178.458035,70,0,461841.824423,0.3183135986328125,-0.952301025390625,-0.31689453125,461841.803105,-0.09540081769227982,-0.150029718875885,-0.01552383229136467
1595776178.488079,71,0,461841.854524,0.4341888427734375,-0.8674774169921875,-0.3311767578125,461841.833206,-0.03615906834602356,-0.06561389565467834,-0.07147391885519028
1595776178.518182,72,0,461841.884625,0.535430908203125,-0.851654052734375,-0.3244781494140625,461841.863307,0.04788470268249512,0.2699002027511597,0.1054835468530655
1595776178.546511,73,0,461841.914726,0.442352294921875,-0.881622314453125,-0.3813629150390625,461841.893408,-0.01537336315959692,0.192213386297226,0.2560767829418182
1595776178.57788,74,0,461841.944827,0.3432464599609375,-0.892608642578125,-0.3425750732421875,461841.923509,-0.06954392045736313,-0.1249315515160561,0.1560729593038559
1595776178.607075,75,0,461841.974928,0.3744354248046875,-0.7787017822265625,-0.3518524169921875,461841.953611,-0.02869902178645134,0.06290226429700851,0.1972113400697708
1595776178.637667,76,0,461842.0050290001,0.4518585205078125,-0.82366943359375,-0.2464752197265625,461841.983712,0.03776868432760239,0.1061219051480293,0.2594685852527618
1595776178.666955,77,0,461842.03513,0.4734649658203125,-0.86279296875,-0.23663330078125,461842.0138130001,0.103511743247509,0.2641600072383881,0.3252119123935699
1595776178.698008,78,0,461842.065231,0.2093048095703125,-1.006607055664062,-0.4332275390625,461842.043914,0.07561592757701874,0.007545534055680037,0.3927991986274719
1595776178.727425,79,0,461842.0953315001,0.168609619140625,-0.751983642578125,-0.491790771484375,461842.0740145,-0.1627060920000076,-0.1083541736006737,0.2115934789180756
1595776178.75804,80,0,461842.1254325,0.5117034912109375,-0.8184356689453125,-0.478546142578125,461842.1041155001,0.2800005078315735,0.1530422866344452,0.1940211355686188
1595776178.787483,81,0,461842.1555335,0.5681304931640625,-0.9989013671875,-0.417755126953125,461842.1342165,0.3654370903968811,0.139667883515358,0.4192672967910767
1595776178.818086,82,0,461842.1856345001,0.4436492919921875,-0.8798828125,-0.24298095703125,461842.1643175,0.2244818359613419,-0.301370769739151,0.4208633303642273
1595776178.84751,83,0,461842.2157355,0.2078399658203125,-0.81976318359375,-0.189056396484375,461842.1944185,0.3454223871231079,-0.1193005591630936,0.4660609066486359
1595776178.878147,84,0,461842.2458365,0.3004150390625,-0.94696044921875,-0.515533447265625,461842.2245195,0.4631439447402954,0.03874260187149048,0.7690945267677307
1595776178.907969,85,0,461842.2759375,0.3192138671875,-0.9141693115234375,-0.423065185546875,461842.2546205,0.388274759054184,-0.254862904548645,0.7590957283973694
1595776178.940269,86,0,461842.3060385,0.1558990478515625,-0.9927825927734375,-0.0790863037109375,461842.2847215,0.1891784518957138,-0.5102449059486389,0.432577520608902
1595776178.970448,87,0,461842.3361395,0.2380218505859375,-0.886810302734375,-0.0178375244140625,461842.3148225,0.2242924869060516,-0.6314767599105835,0.3997308909893036
1595776178.998242,88,0,461842.3662405,0.122039794921875,-0.87908935546875,-0.33282470703125,461842.3449235,0.04809882119297981,-0.5820964574813843,0.5146375298500061
1595776179.028262,89,0,461842.3963415,0.0068206787109375,-1.091995239257812,-0.10540771484375,461842.3750245,0.1362768858671188,-0.7315554022789001,0.3950948715209961
1595776179.073527,90,0,461842.4264425,0.038970947265625,-0.7941131591796875,-0.1645965576171875,461842.4051255001,-0.3359505832195282,-0.5428763031959534,0.2178313881158829
1595776179.088519,91,0,461842.4565435,0.2776947021484375,-1.000625610351562,-0.332763671875,461842.4352265,0.3874824643135071,0.07736456394195557,0.4523357748985291
1595776179.134554,92,0,461842.4866445001,0.09423828125,-1.003250122070312,-0.2575225830078125,461842.4653275,-0.02702655829489231,0.05287333577871323,0.5844759941101074
1595776179.148441,93,0,461842.5167465,0.0821380615234375,-1.006088256835938,-0.0954742431640625,461842.4954285001,-0.1492613852024078,-0.7279638648033142,0.08617137372493744
1595776179.195144,94,0,461842.5468475,-0.010345458984375,-0.86541748046875,-0.3055419921875,461842.5255295,-0.007025685161352158,-0.5674493312835693,0.1309095472097397
1595776179.208985,95,0,461842.5769485,-0.1133880615234375,-1.067123413085938,-0.1504669189453125,461842.5556305,-0.1268245279788971,-0.2919458448886871,0.08905850350856781
1595776179.239856,96,0,461842.6070495,0.201995849609375,-0.8233489990234375,-0.2381134033203125,461842.5857315,-0.1630261987447739,0.33652663230896,0.1364366710186005
1595776179.270561,97,0,461842.6371505,0.2914581298828125,-0.8614501953125,-0.3936920166015625,461842.6158325,0.1253912150859833,0.4698188900947571,0.3247804939746857
1595776179.313163,98,0,461842.6672515,0.086090087890625,-1.112319946289062,-0.3173370361328125,461842.6459335,-0.1130823493003845,-0.1216412112116814,0.1958448737859726
1595776179.329299,99,0,461842.6973525001,-0.0578155517578125,-0.9512176513671875,-0.1158447265625,461842.6760345,-0.1487375497817993,-0.1920413374900818,-0.02478097938001156
1595776179.372685,100,0,461842.7274535,0.0429840087890625,-0.709503173828125,-0.3871917724609375,461842.7061355,-0.08945771306753159,0.08347757905721664,0.1503860354423523
1595776179.389721,101,0,461842.7575545,0.1007080078125,-1.088333129882812,-0.307952880859375,461842.7362365,-0.07546599209308624,0.2094363123178482,0.1076348498463631
1595776179.436647,102,0,461842.7876555001,0.0771026611328125,-1.096466064453125,-0.189239501953125,461842.7663375,-0.06623627990484238,0.3255168497562408,-0.07130427658557892
1595776179.449598,103,0,461842.8177565,0.2364501953125,-0.7318572998046875,-0.3448333740234375,461842.7964385001,-0.2559715807437897,0.09950927644968033,0.1390604227781296
1595776179.492605,104,0,461842.8478575,0.1190185546875,-1.071273803710938,-0.3536529541015625,461842.8265395,-0.1291928738355637,-0.03203915804624557,0.03808959573507309
1595776179.510193,105,0,461842.8779585,0.09619140625,-0.924957275390625,-0.337005615234375,461842.8566405,-0.1897760629653931,-0.3791840672492981,-0.2837329208850861
1595776179.54018,106,0,461842.9080595,0.2704620361328125,-0.8548736572265625,-0.2462615966796875,461842.8867425,-0.1758269518613815,-0.1832316070795059,0.08531143516302109
1595776179.570479,107,0,461842.9381605,-0.102783203125,-1.153182983398438,-0.31158447265625,461842.9168435,-0.03755936026573181,5.512743518920615e-05,0.06521309167146683
1595776179.613485,108,0,461842.9682615,0.008636474609375,-0.775665283203125,-0.3711090087890625,461842.9469445,-0.293521374464035,-0.3555759489536285,0.01367400027811527
1595776179.630143,109,0,461842.9983625,-0.00128173828125,-1.008514404296875,-0.2770843505859375,461842.9770455,-0.0347321480512619,-0.04153492674231529,0.1309937089681625
1595776179.67447,110,0,461843.0284635,0.033599853515625,-0.8477783203125,-0.2906036376953125,461843.0071465001,-0.1812840402126312,-0.1336715072393417,-0.270214706659317
1595776179.690679,111,0,461843.0585645,0.17633056640625,-0.9337921142578125,-0.3886566162109375,461843.0372475,-0.2272123843431473,-0.08116862177848816,-0.07320976257324219
1595776179.736671,112,0,461843.0886655001,0.141082763671875,-1.070602416992188,-0.3931121826171875,461843.0673485,-0.05824999138712883,0.1784299314022064,0.05658524855971336
1595776179.750595,113,0,461843.1187665,0.1032867431640625,-0.8536224365234375,-0.348663330078125,461843.0974495001,-0.2041733711957932,-0.238906055688858,0.07176873087882996
1595776179.79352,114,0,461843.1488675,0.12396240234375,-0.961669921875,-0.3833465576171875,461843.1275505,-0.06031607091426849,-0.1657415628433228,0.3216371536254883
1595776179.81079,115,0,461843.1789685001,0.244598388671875,-0.9299468994140625,-0.3968353271484375,461843.1576515,-0.0720512866973877,-0.006514624692499638,0.03982837125658989
1595776179.853817,116,0,461843.2090695,-0.043304443359375,-1.002334594726562,-0.3639984130859375,461843.1877525,-0.1203285381197929,-0.3275046348571777,-0.05963962897658348
1595776179.871254,117,0,461843.2391705,-0.0165557861328125,-0.8649749755859375,-0.2930908203125,461843.2178535,-0.2148790210485458,-0.4222170114517212,-0.003067961661145091
1595776179.912789,118,0,461843.2692715,0.082244873046875,-0.9316864013671875,-0.3629150390625,461843.2479545,0.01933108642697334,0.04601036757230759,-0.05930646508932114
1595776179.931176,119,0,461843.2993725,0.061981201171875,-0.896026611328125,-0.34344482421875,461843.2780555,-0.07837656140327454,-0.1378518790006638,0.224642425775528
1595776179.970703,120,0,461843.3294735,0.0172119140625,-0.972015380859375,-0.31329345703125,461843.3081565,-0.07889188826084137,0.09887757897377014,0.3048903942108154
1595776179.991442,121,0,461843.3595745,0.0898590087890625,-0.889739990234375,-0.3963623046875,461843.3382575,0.04131255298852921,0.3208328783512115,0.1905108243227005
1595776180.03398,122,0,461843.3896755,0.1437225341796875,-0.9300537109375,-0.41485595703125,461843.3683585,0.01613715849816799,0.07157991081476212,-0.01595313288271427
1595776180.054859,123,0,461843.4197765,0.0706329345703125,-0.9775238037109375,-0.3642578125,461843.3984595001,-0.02755066752433777,-0.2224546372890472,0.1131177693605423
1595776180.091731,124,0,461843.4498775,0.030487060546875,-0.9476776123046875,-0.358612060546875,461843.4285605,0.03700169175863266,-0.05874214321374893,0.2658668458461761
1595776180.112045,125,0,461843.4799785001,0.0315399169921875,-0.9088134765625,-0.3266143798828125,461843.4586615,0.005367601290345192,-0.05398626998066902,0.237826406955719
1595776180.155355,126,0,461843.5100795,0.0676116943359375,-0.9032745361328125,-0.349517822265625,461843.4887625001,-0.09609483927488327,-0.07190561294555664,0.1196177452802658
1595776180.172187,127,0,461843.5401805,0.0487213134765625,-0.993896484375,-0.36260986328125,461843.5188635,0.006956176832318306,0.009303220547735691,-0.04379674792289734
1595776180.212513,128,0,461843.5702815001,-0.0021209716796875,-0.902923583984375,-0.3661346435546875,461843.5489645,0.07335783541202545,-0.2001131176948547,0.04855475202202797
1595776180.232208,129,0,461843.6003825,0.0975341796875,-0.9056854248046875,-0.3743896484375,461843.5790655,-0.03020530566573143,-0.09311635792255402,-0.01392087526619434
