loggingTime,loggingSample,identifierForVendor,accelerometerTimestamp_sinceReboot,accelerometerAccelerationX,accelerometerAccelerationY,accelerometerAccelerationZ,gyroTimestamp_sinceReboot,gyroRotationX,gyroRotationY,gyroRotationZ
1595774606.682245,1,0,460270.031194,0.4951629638671875,-0.836669921875,-0.3633880615234375,460270.002344,-0.06204685941338539,0.383974552154541,-0.1607071161270142
1595774606.70543,2,0,460270.061295,0.381103515625,-0.869659423828125,-0.394561767578125,460270.0625450001,0.05635035783052444,-0.05455485358834267,0.1418197154998779
1595774606.735408,3,0,460270.0913950001,0.353729248046875,-0.804718017578125,-0.4077606201171875,,,,
1595774606.765496,4,0,460270.121496,0.9713134765625,-0.821868896484375,-0.4034271240234375,460270.092645,0.008742358535528183,0.4351669251918793,-0.06177415326237679
1595774606.795504,5,0,460270.151596,0.6336822509765625,-0.87481689453125,-0.36328125,460270.122746,0.02200916223227978,0.3017534613609314,0.3986837267875671
1595774606.82547,6,0,460270.1816970001,0.213623046875,-0.792236328125,-0.2769775390625,460270.152846,0.1227666661143303,-0.7571774125099182,0.7060271501541138
1595774606.855755,7,0,460270.211797,0.1052703857421875,-0.95428466796875,-0.3603668212890625,460270.2130470001,0.1139654517173767,-0.8204954266548157,-0.04468278214335442
1595774606.88587,8,0,460270.241898,0.046905517578125,-0.859375,-0.3465423583984375,,,,
1595774606.915872,9,0,460270.271998,0.1738433837890625,-0.917510986328125,-0.345855712890625,460270.243148,-0.2306209653615952,0.0285877026617527,-0.5906955003738403
1595774606.946089,10,0,460270.302099,0.145660400390625,-0.9372406005859375,-0.5210723876953125,460270.273248,0.8108252286911011,0.2768473029136658,1.062098503112793
1595774606.976089,11,0,460270.3321990001,0.255584716796875,-0.827239990234375,-0.6165008544921875,460270.3033490001,-0.01457574684172869,-0.03697080165147781,-0.03604375571012497
1595774607.006222,12,0,460270.3623,0.2397613525390625,-0.8406829833984375,-0.4374847412109375,460270.333449,0.4158629775047302,-0.08794716745615005,-0.3908402025699615
1595774607.036319,13,0,460270.3924,0.056671142578125,-0.9082794189453125,-0.4515533447265625,460270.36355,0.4113832712173462,-0.001459145918488503,0.1737978905439377
1595774607.066549,14,0,460270.4225010001,0.08001708984375,-0.825958251953125,-0.4834136962890625,460270.39365,0.7819957137107849,-0.117701068520546,-0.5460167527198792
1595774607.096344,15,0,460270.452601,-0.015472412109375,-0.920654296875,-0.3155364990234375,460270.423751,0.6962240934371948,-0.1427257210016251,-0.7989938855171204
1595774607.126606,16,0,460270.482702,0.21240234375,-0.82293701171875,-0.1118316650390625,460270.4538510001,0.7519861459732056,0.1550689488649368,-0.9260095953941345
1595774607.156657,17,0,460270.512803,0.4918670654296875,-0.7903594970703125,-0.26019287109375,460270.483952,0.4997006356716156,0.8857796192169189,-0.9724814891815186
1595774607.186912,18,0,460270.542903,0.4720916748046875,-0.8697967529296875,-0.101593017578125,460270.514053,0.7985197901725769,0.7272749543190002,-0.9593955278396606
1595774607.216982,19,0,460270.573004,0.75286865234375,-0.9048614501953125,0.0320892333984375,460270.5441530001,0.5631123781204224,-0.6325976848602295,-1.07135796546936
1595774607.247169,20,0,460270.603104,0.7318878173828125,-0.941162109375,-0.464874267578125,460270.574254,0.5826519727706909,0.8871620893478394,-0.3300191760063171
1595774607.277132,21,0,460270.6332052917,0.3628387451171875,-0.8232574462890625,0.05303955078125,460270.604354,0.04424895346164703,0.8087354302406311,-0.1005306020379066
1595774607.307291,22,0,460270.6633052917,0.5563812255859375,-0.71954345703125,0.1355743408203125,460270.6344552917,0.2422448545694351,0.4695571064949036,-0.2230586409568787
1595774607.33734,23,0,460270.6934062917,0.6288604736328125,-0.97760009765625,-0.0557708740234375,460270.6645552917,0.1874620318412781,1.232876896858215,-0.05562890693545341
1595774607.36986,24,0,460270.7235062917,0.392791748046875,-0.9753875732421875,-0.130279541015625,460270.6946562917,-0.05579908192157745,1.193559765815735,0.1433534324169159
1595774607.397404,25,0,460270.7536072917,0.3546600341796875,-0.7639923095703125,-0.192352294921875,460270.7247562917,-0.006069876719266176,0.4792377054691315,-0.1102820336818695
1595774607.429116,26,0,460270.7837072917,0.5151214599609375,-0.7918548583984375,-0.161163330078125,460270.7548572917,-0.02155855484306812,0.2888334095478058,-0.4767228662967682
1595774607.457633,27,0,460270.8138082917,0.44390869140625,-0.841064453125,-0.29156494140625,460270.7849572917,0.117501325905323,0.4673480093479156,-0.2970284819602966
1595774607.488695,28,0,460270.8439082917,0.6161041259765625,-0.85614013671875,-0.120574951171875,460270.8150582917,0.3504070043563843,-0.3244912624359131,-0.5417399406433105
1595774607.517936,29,0,460270.8740092917,1.016754150390625,-0.7996978759765625,-0.20489501953125,460270.8451582917,0.4596096575260162,-0.311534970998764,-0.4916645288467407
1595774607.549013,30,0,460270.9041092917,0.489349365234375,-0.92559814453125,-0.1517486572265625,460270.8752592917,0.2281378358602524,-0.2145314663648605,-0.163685068488121
1595774607.578148,31,0,460270.9342102917,0.2546844482421875,-0.8348236083984375,0.0464019775390625,460270.9053592917,0.5971826910972595,-1.297719478607178,0.09877531230449677
1595774607.609406,32,0,460270.9643102917,0.671875,-0.6129608154296875,0.1845245361328125,460270.9354602917,0.5809171795845032,-1.184334874153137,-0.4787612557411194
1595774607.638408,33,0,460270.9944112917,0.77008056640625,-0.9734954833984375,-0.220489501953125,460270.9655602917,0.05920473486185074,0.4641980230808258,-0.5866901278495789
1595774607.669493,34,0,460271.0245112917,0.6308441162109375,-0.8916015625,-0.1036224365234375,460270.9956612917,0.3958863615989685,-0.3713282644748688,0.2202969491481781
1595774607.698547,35,0,460271.0546122917,0.3663787841796875,-0.6800384521484375,0.1037139892578125,460271.0257612917,0.1576604694128036,-0.9683498740196228,-0.179167628288269
1595774607.729371,36,0,460271.0847122917,0.5681304931640625,-0.9395599365234375,-0.061126708984375,460271.0558622917,0.2675728499889374,-0.5678759813308716,-0.6906327605247498
1595774607.758739,37,0,460271.1148132917,0.6642608642578125,-0.83349609375,0.1181793212890625,460271.0859622917,0.2014018148183823,-0.259790301322937,-0.0150737576186657
1595774607.789603,38,0,460271.1449132917,0.4629974365234375,-0.84326171875,0.1342926025390625,460271.1160632917,-0.3183276355266571,-0.303056538105011,-0.1471854597330093
1595774607.818871,39,0,460271.1750142917,0.48114013671875,-0.944610595703125,0.2053070068359375,460271.1461632917,-0.3193273842334747,0.01640187576413155,-0.2044740468263626
1595774607.84943,40,0,460271.2051142917,0.3062591552734375,-0.789306640625,0.2034912109375,460271.1762642917,-0.7929127812385559,0.4783332943916321,-0.03057095780968666
1595774607.87926,41,0,460271.2352152917,0.22882080078125,-1.052978515625,0.3941802978515625,460271.2063642917,-1.064609289169312,0.7458906769752502,-0.3398571610450745
1595774607.909376,42,0,460271.2653152917,0.14501953125,-1.091812133789062,0.0463104248046875,460271.2364652917,-1.313820481300354,1.238010883331299,-0.5533265471458435
1595774607.939381,43,0,460271.2954162917,0.4926605224609375,-1.220169067382812,0.0319366455078125,460271.2665652917,-1.395087838172913,1.625010848045349,-1.010690689086914
1595774607.969501,44,0,460271.3255162917,0.262451171875,-3.509323120117188,-0.270751953125,460271.2966662917,-1.754004001617432,1.353791832923889,-2.173973321914673
1595774607.999554,45,0,460271.3556172917,-0.1857452392578125,-2.610992431640625,0.84295654296875,460271.3267662917,-3.379671335220337,1.03408145904541,-3.476824998855591
1595774608.046658,46,0,460271.3857172917,0.125274658203125,-1.590103149414062,1.382156372070312,460271.3568672917,-6.81561803817749,4.422849655151367,-3.99392557144165
1595774608.059745,47,0,460271.4158182917,0.7196197509765625,0.0429229736328125,1.759292602539062,460271.3869672917,-7.562888622283936,6.246324062347412,-2.815477132797241
1595774608.110045,48,0,460271.4459182917,2.342193603515625,0.9636077880859375,0.874603271484375,460271.4170682917,-8.625226974487305,5.284676551818848,-2.422881603240967
1595774608.120256,49,0,460271.4760192917,1.741683959960938,0.91259765625,0.3479766845703125,460271.4471682917,-7.344319343566895,-0.2973701655864716,-1.520203471183777
1595774608.16873,50,0,460271.5061192917,0.5333404541015625,1.005462646484375,0.9224853515625,460271.4772692917,-6.546748638153076,-2.626046419143677,-0.1127350702881813
1595774608.180193,51,0,460271.5362202917,-0.18939208984375,2.500640869140625,0.9865264892578125,460271.5073692917,-6.280548572540283,-4.099323272705078,1.449487209320068
1595774608.222321,52,0,460271.5663202917,0.413726806640625,1.487640380859375,-0.2042083740234375,460271.5374702917,-4.615087032318115,-0.1188038811087608,4.244756698608398
1595774608.241341,53,0,460271.5964212917,0.3532562255859375,0.47503662109375,0.444976806640625,460271.5675702917,-1.3305424451828,2.630142450332642,5.8350510597229
1595774608.28649,54,0,460271.626522125,0.560272216796875,-0.5251922607421875,0.367034912109375,460271.5976712917,-2.541717529296875,3.045003414154053,5.86757230758667
1595774608.300576,55,0,460271.656623125,3.96661376953125,-0.20477294921875,0.9578399658203125,460271.627772125,-2.774454355239868,5.492695331573486,4.979294300079346
1595774608.343992,56,0,460271.6867231251,0.748260498046875,-0.94573974609375,-6.126785278320312,460271.657873125,2.154230117797852,8.533965110778809,1.568889260292053
1595774608.36075,57,0,460271.716824125,0.9284820556640625,0.2064666748046875,0.69580078125,460271.687973125,-4.092763900756836,-6.940742969512939,-2.465588092803955
1595774608.405044,58,0,460271.746924125,1.136184692382812,-1.79339599609375,2.407440185546875,460271.748174125,2.94891095161438,-2.141003608703613,2.290297269821167
1595774608.421134,59,0,460271.777025125,-0.9161376953125,-2.712844848632812,0.4602813720703125,,,,
1595774608.462646,60,0,460271.807125125,0.0204010009765625,-0.0708770751953125,0.3120880126953125,460271.778275125,-1.217990040779114,-0.8712781667709351,1.996325731277466
1595774608.481283,61,0,460271.837226125,1.463851928710938,1.056167602539062,0.5581512451171875,460271.8083751251,-0.8917586803436279,5.220465660095215,-2.110070466995239
1595774608.525195,62,0,460271.867326125,1.48651123046875,-0.7162322998046875,-0.4622650146484375,460271.838476125,-1.464109539985657,4.540220260620117,-1.14527428150177
1595774608.541359,63,0,460271.897427125,0.5604400634765625,-1.883987426757812,0.5225982666015625,460271.868576125,1.577132821083069,-0.8581554293632507,2.747164249420166
1595774608.585937,64,0,460271.9275271251,0.9500732421875,0.0411376953125,0.5804443359375,460271.898677125,-0.2235827594995499,-2.45958948135376,1.378048181533813
1595774608.601829,65,0,460271.957628125,0.487335205078125,-0.289520263671875,-0.880523681640625,460271.928777125,-1.543537855148315,2.368812084197998,-1.994184374809265
1595774608.644712,66,0,460271.987728125,0.1134185791015625,-1.847488403320312,-0.318817138671875,460271.958878125,0.7068396806716919,-0.6098260879516602,0.8763784170150757
1595774608.661846,67,0,460272.017829125,0.7057952880859375,-0.4630584716796875,0.126129150390625,460272.019079125,-0.3903994262218475,1.638113021850586,-2.236722707748413
1595774608.709221,68,0,460272.047929125,1.507766723632812,0.2581939697265625,-0.704620361328125,,,,
1595774608.72194,69,0,460272.078030125,0.6768341064453125,-1.14874267578125,-0.0939483642578125,460272.0491791251,-0.01087288744747639,-1.058604121208191,-1.450364232063293
1595774608.761562,70,0,460272.108130125,0.5202789306640625,-1.167877197265625,0.42633056640625,460272.079280125,0.7839148044586182,-2.071605920791626,1.609217166900635
1595774608.782337,71,0,460272.138231125,1.06439208984375,-0.24481201171875,-0.021575927734375,460272.109380125,0.3426332473754883,0.1337418258190155,-0.07275675982236862
1595774608.824959,72,0,460272.1683311251,0.6484832763671875,-1.004013061523438,-0.3599700927734375,460272.1394811251,-0.9379109740257263,1.353946566581726,-1.261661052703857
1595774608.842479,73,0,460272.198432125,0.5477142333984375,-0.9540557861328125,0.0750885009765625,460272.169581125,0.1052412018179893,0.2304188311100006,1.107570886611938
1595774608.886497,74,0,460272.228532125,0.925933837890625,-0.414947509765625,-0.2749786376953125,460272.199682125,0.04150350019335747,0.2934918105602264,0.7511445879936218
1595774608.902692,75,0,460272.258633125,1.059524536132812,-0.5346527099609375,-0.4573516845703125,460272.229782125,-0.07551766186952591,0.1975117474794388,-1.153223276138306
1595774608.947957,76,0,460272.288733125,0.59600830078125,-0.789825439453125,-0.0211944580078125,460272.259883125,0.4127542674541473,-1.1052166223526,-0.2970452606678009
1595774608.96273,77,0,460272.318834125,0.7163238525390625,-0.41357421875,0.1273956298828125,460272.2899831251,0.4095600843429565,-1.362435936927795,0.5636740326881409
1595774609.007339,78,0,460272.348934125,1.033981323242188,-0.229736328125,-0.0368804931640625,460272.320084125,0.1562822759151459,-0.513982892036438,-0.3932215869426727
1595774609.024758,79,0,460272.379035125,0.70062255859375,-0.713348388671875,0.0340423583984375,460272.350184125,0.2015954405069351,-1.114701747894287,-0.3786256015300751
1595774609.064135,80,0,460272.4091351251,0.5455780029296875,-0.9896087646484375,0.036956787109375,460272.3802851251,0.5975505113601685,-1.640826821327209,0.4886152148246765
1595774609.083353,81,0,460272.439236125,0.84185791015625,-0.5838775634765625,-0.1469879150390625,460272.410385125,-0.2680370509624481,-0.4386996030807495,0.2492588311433792
1595774609.12656,82,0,460272.469336125,0.93743896484375,-0.4408721923828125,-0.35443115234375,460272.440486125,-0.6774035096168518,0.6316714286804199,-0.03809864819049835
1595774609.14369,83,0,460272.4994371251,0.9935455322265625,-0.8726348876953125,-0.1498565673828125,460272.470586125,-0.15029177069664,-0.4752983450889587,0.4358598589897156
1595774609.186386,84,0,460272.529537125,0.5554656982421875,-0.896148681640625,-0.051055908203125,460272.500687125,0.3209383487701416,-1.240303874015808,0.5552904009819031
1595774609.203508,85,0,460272.559638125,0.387908935546875,-0.468170166015625,-0.10980224609375,460272.5307871251,-0.2064740806818008,-1.531612992286682,0.2329909056425095
1595774609.248413,86,0,460272.589738125,0.749176025390625,-0.4279327392578125,-0.1727294921875,460272.560888125,-0.05017635226249695,-0.8352946043014526,0.004632302559912205
1595774609.263715,87,0,460272.61983825,0.8375701904296875,-0.750701904296875,-0.3184051513671875,460272.590988125,-0.3078978955745697,-0.1031458228826523,0.2903546094894409
1595774609.307461,88,0,460272.64993825,0.5441741943359375,-0.692169189453125,-0.167938232421875,460272.62108825,-0.2854378819465637,-0.7269700169563293,0.4982731640338898
1595774609.325185,89,0,460272.68003925,0.373748779296875,-0.5556640625,-0.2060394287109375,460272.65118825,-0.3039833307266235,-0.8693004846572876,0.1105046719312668
1595774609.365614,90,0,460272.71013925,0.6815643310546875,-0.5953826904296875,-0.489501953125,460272.68128925,-0.3661471009254456,-0.2422781437635422,0.1332145184278488
1595774609.384208,91,0,460272.74024025,0.6641082763671875,-0.7887115478515625,-0.4762420654296875,460272.71138925,0.02803829312324524,-0.2700133621692657,0.1826374530792236
1595774609.425365,92,0,460272.77034025,0.4514007568359375,-0.769622802734375,-0.4871673583984375,460272.74149025,-0.01877342164516449,-0.7113457918167114,-0.1180494055151939
1595774609.444648,93,0,460272.80044125,0.58990478515625,-0.6443023681640625,-0.537933349609375,460272.77159025,-0.1160131543874741,-0.3514413833618164,0.05604595690965652
1595774609.488491,94,0,460272.83054125,0.5709075927734375,-0.5904693603515625,-0.4098663330078125,460272.80169125,-0.1435502469539642,-0.01801255531609058,0.08111269772052765
1595774609.504585,95,0,460272.86064225,0.5752105712890625,-0.6517181396484375,-0.3211669921875,460272.83179125,-0.1940493732690811,-0.1137862205505371,-0.0924079641699791
1595774609.548602,96,0,460272.89074225,0.576171875,-0.7299346923828125,-0.2020721435546875,460272.86189225,0.04877233132719994,-0.215483546257019,-0.09724532812833786
1595774609.564768,97,0,460272.92084325,0.6182098388671875,-0.7242584228515625,-0.2992401123046875,460272.89199225,-0.1018464714288712,0.04658987373113632,-0.08914265781641006
1595774609.605489,98,0,460272.95094325,0.673065185546875,-0.7583465576171875,-0.423858642578125,460272.92209325,-0.3201817274093628,0.4030776917934418,-0.03377500921487808
1595774609.625054,99,0,460272.98104425,0.7874908447265625,-0.562591552734375,-0.4514923095703125,460272.98229425,-0.08312977105379105,0.1142789050936699,-0.02388029918074608
1595774609.662125,100,0,460273.01114425,0.61846923828125,-0.7739410400390625,-0.458831787109375,,,,
1595774609.68511,101,0,460273.04124525,0.7447662353515625,-0.76123046875,-0.345916748046875,460273.01239425,0.1511639505624771,-0.470606654882431,0.01804904080927372
1595774609.728438,102,0,460273.07134525,0.697235107421875,-0.6007843017578125,-0.5477752685546875,460273.04249525,-0.1274112164974213,0.1281276047229767,0.03878041729331017
1595774609.745502,103,0,460273.10144625,0.5267486572265625,-0.712554931640625,-0.297454833984375,460273.07259525,0.05771682411432266,-0.2718634605407715,0.2253164798021317
1595774609.786665,104,0,460273.13154625,0.5224456787109375,-0.651275634765625,-0.281280517578125,460273.10269625,-0.008775382302701473,-0.1143209859728813,-0.04527054354548454
1595774609.805609,105,0,460273.16164725,0.6784210205078125,-0.7521209716796875,-0.3179473876953125,460273.1327962501,-0.02705638483166695,-0.06208600848913193,-0.2259345948696136
1595774609.846814,106,0,460273.19174725,0.5594635009765625,-0.685516357421875,-0.5158233642578125,460273.16289725,-0.718926727771759,0.5949397683143616,0.7500441670417786
1595774609.865861,107,0,460273.22184825,0.705169677734375,-0.60302734375,-0.3470458984375,460273.19299725,-0.1426857858896255,0.1675381362438202,-0.1181514039635658
1595774609.907875,108,0,460273.2519482501,0.510284423828125,-0.6955108642578125,-0.41827392578125,460273.22309825,-0.1389640122652054,0.1329013258218765,0.2832777798175812
1595774609.92601,109,0,460273.28204925,0.6745147705078125,-0.70831298828125,-0.418121337890625,460273.25319825,0.1131619736552238,-0.1451486647129059,0.3051598966121674
1595774609.967272,110,0,460273.31214925,0.75537109375,-0.6674041748046875,-0.40789794921875,460273.31339925,-0.3043012917041779,-0.1751840710639954,-0.2050543427467346
1595774609.986214,111,0,460273.34225025,0.4273681640625,-0.7916412353515625,-0.46075439453125,,,,
1595774610.025292,112,0,460273.37235025,0.4889678955078125,-0.667388916015625,-0.371612548828125,460273.34350025,0.1532582640647888,-0.2681965529918671,0.5608761310577393
1595774610.046701,113,0,460273.40245125,0.7667694091796875,-0.5669708251953125,-0.4329071044921875,460273.3736002501,-0.06508152931928635,0.1789716184139252,-0.1214851513504982
1595774610.085685,114,0,460273.43255125,0.564605712890625,-0.832061767578125,-0.3924713134765625,460273.40370125,0.1551746726036072,-0.1176459416747093,-0.09839607775211334
1595774610.108622,115,0,460273.46265225,0.5108184814453125,-0.663299560546875,-0.3761444091796875,460273.43380125,-0.008056062273681164,-0.3317214846611023,-0.04822957888245583
1595774610.145895,116,0,460273.4927522501,0.888763427734375,-0.4459381103515625,-0.3100128173828125,460273.46390225,-0.02352876216173172,-0.09882324934005737,-0.06984512507915497
1595774610.166884,117,0,460273.52285225,0.575531005859375,-0.8051300048828125,-0.3743133544921875,460273.49400225,-0.1164698898792267,0.1940661519765854,0.05667899176478386
1595774610.205633,118,0,460273.55295325,0.40997314453125,-0.8379974365234375,-0.448974609375,460273.5241022501,0.09054134786128998,-0.4968087077140808,0.003241599537432194
1595774610.227073,119,0,460273.58305325,0.5566864013671875,-0.673583984375,-0.494873046875,460273.55420325,0.1125707551836967,-0.2275998741388321,0.01616591960191727
