loggingTime,loggingSample,identifierForVendor,motionTimestamp_sinceReboot,motionYaw,motionRoll,motionPitch,motionRotationRateX,motionRotationRateY,motionRotationRateZ,motionUserAccelerationX,motionUserAccelerationY,motionUserAccelerationZ,motionAttitudeReferenceFrame,motionQuaternionX,motionQuaternionY,motionQuaternionZ,motionQuaternionW,motionGravityX,motionGravityY,motionGravityZ,motionMagneticFieldX,motionMagneticFieldY,motionMagneticFieldZ,motionMagneticFieldCalibrationAccuracy
1596231054.836366,1,0,103387.0254057917,1.980328717433731,-0.8434939302397899,1.179302407824827,0.02220743149518967,-0.1000444367527962,-0.0764659121632576,0.01041945815086365,0.02861642837524414,-0.04099231958389282,2,0.5627766141332724,0.2375659672447839,0.5091654939787182,0.60629675613082,-0.2850219011306763,-0.9243400692939758,-0.2536897957324982,-24.46034240722656,-44.34173583984375,9.244140625,2
1596231054.851684,2,0,103387.0555037917,1.977227537526699,-0.8429264965899259,1.182357649459676,0.03696522861719131,-0.01086684875190258,-0.2133651077747345,-0.03771829605102539,0.05959433317184448,0.01205980777740479,2,0.563346212373141,0.2380238455243084,0.5074508241932649,0.6070252367617633,-0.282768040895462,-0.9255015254020691,-0.2519713938236237,-24.47225189208984,-44.33880615234375,9.191741943359375,2
1596231054.881701,3,0,103387.0856017917,1.966735152922132,-0.8356357585898707,1.191079014431877,0.1553373783826828,-0.0313686914741993,-0.340782105922699,0.04516640305519104,0.03290873765945435,-0.03154706954956055,2,0.5637530450183967,0.2405849618748217,0.5036459493353664,0.6088039578033156,-0.274925708770752,-0.9287694692611694,-0.2486027628183365,-24.23009490966797,-44.57154083251953,9.144866943359375,2
1596231054.91237,4,0,103387.1157007917,1.961955644722038,-0.8336604968037856,1.198533804227109,0.1404974311590195,-0.166920080780983,-0.1054036468267441,0.02260205149650574,-0.006399750709533691,-0.02287441492080688,2,0.5646920367704943,0.2426533052454826,0.5004595584176723,0.6097398405761927,-0.2693002820014954,-0.9315068125724792,-0.2444845587015152,-23.84500122070312,-44.61441802978516,9.470062255859375,2
1596231054.944594,5,0,103387.1457987917,1.966394242418421,-0.8411213219506193,1.202546911995441,0.08767873793840408,-0.008333117701113224,0.002018572529777884,0.01267477869987488,-0.07466018199920654,0.006030857563018799,2,0.5664729600192853,0.2431483870453578,0.4984675644270178,0.609522285699327,-0.268328070640564,-0.9329589605331421,-0.2399744987487793,-23.75327301025391,-44.63154602050781,9.69976806640625,2
1596231054.97199,6,0,103387.1758967917,1.975934714643295,-0.8492238092487634,1.204505859094617,0.1885527223348618,-0.05787404999136925,-0.06911715865135193,-0.03951925039291382,0.1032533049583435,-0.04748499393463135,2,0.5675473620739678,0.2441260275864655,0.4984703332348651,0.6081282668542132,-0.2688911557197571,-0.9336623549461365,-0.236584946513176,-23.72891998291016,-44.76471710205078,9.938629150390625,2
1596231055.002111,7,0,103387.2059957917,1.978207659997479,-0.8556137420470279,1.211479955636541,0.2129783183336258,-0.1177756935358047,-0.1355403214693069,0.0784771740436554,0.009189486503601074,-0.0144122838973999,2,0.5696097722198369,0.2454618216584612,0.4951864023299621,0.6083451784338278,-0.2654750049114227,-0.9361374378204346,-0.2305864095687866,-23.42143249511719,-44.64011383056641,10.34088134765625,2
1596231055.032481,8,0,103387.2360937917,1.991892964500129,-0.8714010564269713,1.216716119897363,0.2247064560651779,-0.1669993549585342,0.08163301646709442,0.08327162265777588,-0.04201185703277588,-0.06893527507781982,2,0.57237158569458,0.2465494200185533,0.4932093998389672,0.6069176368722861,-0.2653277218341827,-0.9379658102989197,-0.2232083082199097,-23.55758666992188,-44.58367919921875,10.74411010742188,2
1596231055.063856,9,0,103387.2661917917,2.008812201059269,-0.8952624761053775,1.217284656656812,0.167306512594223,-0.3027367889881134,0.05467147752642632,-0.04204654693603516,0.04369837045669556,-0.003353595733642578,2,0.5762235983018731,0.2443894015771616,0.4913089557708574,0.605686210980229,-0.2701610326766968,-0.9381628036499023,-0.2164803743362427,-23.42780303955078,-44.58548736572266,11.068603515625,2
1596231055.092453,10,0,103387.2962907917,2.019008003488873,-0.9117296623329091,1.221131924734006,0.1812312453985214,-0.1667910367250443,-0.0518372468650341,-0.03712230920791626,0.002408385276794434,0.03910470008850098,2,0.5793645450011482,0.243805752591687,0.4884330466270164,0.6052511917995872,-0.2708341479301453,-0.9394877552986145,-0.2097909599542618,-23.25502014160156,-44.60549926757812,11.576904296875,2
1596231055.122513,11,0,103387.3263887917,2.030085569428321,-0.9270795287258363,1.224866079791403,0.1836585998535156,-0.1771022975444794,-0.009173020720481873,-0.04352694749832153,0.009802460670471191,-0.05217134952545166,2,0.5820768917917432,0.2437938728791746,0.486152126762888,0.604489397673825,-0.2712142169475555,-0.9407604336738586,-0.2035020738840103,-23.22158050537109,-44.47303771972656,11.73544311523438,2
1596231055.15268,12,0,103387.3564867917,2.053905426620242,-0.9538479858370457,1.231015850626698,0.4508974552154541,-0.08297714591026306,0.02285104244947433,-0.02768006920814514,0.07693195343017578,-0.09962403774261475,2,0.5861422091939528,0.2450058495254638,0.4835777563475448,0.6021312593539956,-0.2718393206596375,-0.9428278803825378,-0.192818894982338,-22.84849548339844,-44.39033508300781,12.22518920898438,2
1596231055.18495,13,0,103387.3865857917,2.082564671400012,-0.9886724912497082,1.238145446372749,0.3256920278072357,-0.3953400850296021,-0.1484458148479462,-0.07691094279289246,0.1099560856819153,-0.04358565807342529,2,0.5914997041259802,0.2456817224485786,0.4796741444543545,0.5997346036029555,-0.2727665603160858,-0.9451799988746643,-0.1795371770858765,-22.87919616699219,-44.14378356933594,12.57949829101562,2
1596231055.212795,14,0,103387.4166837917,2.097380676423384,-1.014401753604893,1.24949252416341,0.3076053559780121,-0.3057389855384827,-0.1824091225862503,0.06392168998718262,-0.1253929734230042,-0.005671977996826172,2,0.5964608749541752,0.246661240096563,0.4728568426173758,0.5998327789435158,-0.2681702077388763,-0.9488244652748108,-0.1667853146791458,-22.53936767578125,-43.98451995849609,13.52960205078125,2
1596231055.247671,15,0,103387.4467817917,2.120763852217528,-1.046371263007929,1.252657711370682,0.3330300450325012,-0.4153282940387726,0.1524580270051956,0.1102214455604553,-0.02271509170532227,-0.02023142576217651,2,0.6012691668812145,0.2452824802137848,0.4692754334487182,0.5984085479961394,-0.2707634270191193,-0.9498193264007568,-0.1566237807273865,-22.49937438964844,-44.17482757568359,14.21905517578125,2
1596231055.273029,16,0,103387.4768807917,2.152546616297639,-1.089135620604441,1.255692481645879,0.2696082592010498,-0.4531420767307281,0.002891428768634796,0.01994496583938599,0.09044080972671509,0.05086851119995117,2,0.6074871901519342,0.243258524351839,0.464873026769054,0.5963875120255893,-0.2746561169624329,-0.9507641792297363,-0.1435692012310028,-22.27213287353516,-43.87372589111328,14.8785400390625,2
1596231055.303088,17,0,103387.5069787917,2.180428998227199,-1.133675718275653,1.260713607542627,0.3614677488803864,-0.7338006496429443,-0.03566992655396461,-0.007825642824172974,-0.001667141914367676,-0.01160734891891479,2,0.6145114721604221,0.2403917312908644,0.4579646879704243,0.5956979789236303,-0.2764473855495453,-0.9523083567619324,-0.1291749328374863,-21.73688507080078,-43.77791595458984,15.73550415039062,2
1596231055.33314,18,0,103387.5370767917,2.208391235548331,-1.179019731277397,1.264903903231087,0.3142762184143066,-0.4923731982707977,0.003666512435302138,-0.001814335584640503,0.01036292314529419,0.01726639270782471,2,0.6215217163951124,0.2371022538103388,0.450933880720062,0.59510688498598,-0.2783280313014984,-0.9535785913467407,-0.1149865537881851,-21.79171752929688,-43.71016693115234,16.27969360351562,2
1596231055.363501,19,0,103387.5671757917,2.242698405978644,-1.226254429858125,1.269870674447703,0.4136391580104828,-0.4628785848617554,-0.0664486438035965,0.01176109910011292,0.06124508380889893,-0.06795555353164673,2,0.6280284956993654,0.2356321571925691,0.4447839123238604,0.5934856065640979,-0.2789853513240814,-0.9550625085830688,-0.1001153886318207,-21.34596252441406,-43.62065124511719,17.194091796875,2
1596231055.393525,20,0,103387.5972737917,2.285364572125213,-1.277488107793026,1.275341243486952,0.5105002522468567,-0.23482845723629,-0.0286006610840559,0.006034821271896362,0.04525083303451538,-0.07714879512786865,2,0.6342209381233458,0.2359477488686665,0.4395068711385116,0.590699844203959,-0.2787403166294098,-0.9566697478294373,-0.0841849222779274,-21.18872833251953,-43.47087097167969,17.79489135742188,2
1596231055.426923,21,0,103387.6273717917,2.332119928452854,-1.323330808599133,1.280955817866481,0.4836147725582123,0.05219480395317078,-0.05058148130774498,-0.0008838176727294922,-0.04737579822540283,-0.1201648712158203,2,0.6385083999563985,0.2393825927324858,0.436910723770659,0.5866107842161122,-0.2770934998989105,-0.9582894444465637,-0.07000599801540375,-21.02725219726562,-43.20721435546875,18.62295532226562,2
1596231055.453679,22,0,103387.6574707917,2.399199188864154,-1.388610648696598,1.284446213179895,0.7868266105651855,-0.01437150035053492,0.06564386934041977,0.1439763307571411,0.0514838695526123,-0.03804481029510498,2,0.6444457471089854,0.2431095619040717,0.4344573339623979,0.580374471191365,-0.2777791917324066,-0.9592812061309814,-0.0511748380959034,-20.96501159667969,-42.99370574951172,19.16082763671875,2
1596231055.484774,23,0,103387.6875687917,2.463886953700879,-1.450899599093148,1.285080606544725,0.501912534236908,-0.05246120691299438,0.05718908458948135,-0.08622249960899353,0.06985396146774292,0.00970989465713501,2,0.6499887461157476,0.2462903857277179,0.4327759890778493,0.5740738210388898,-0.2798213064670563,-0.9594601988792419,-0.03371135145425797,-21.05405426025391,-42.61638641357422,19.99392700195312,2
1596231055.513824,24,0,103387.7176667917,2.523495959740715,-1.505726588340199,1.287181079581102,0.5357999801635742,0.1900750547647476,-0.08383840322494507,0.01715812087059021,0.01793158054351807,0.04637759923934937,2,0.6542216541132215,0.2507912600197543,0.4313026028618226,0.5683977401873692,-0.2792366445064545,-0.9600500464439392,-0.01819554157555103,-21.03289794921875,-42.29213714599609,20.444580078125,2
1596231055.543854,25,0,103387.7477657917,2.568071867997012,-1.546273787914822,1.289709320797604,0.4436481297016144,-0.1376257538795471,-0.08977176249027252,0.03822246193885803,0.007903456687927246,0.02620506286621094,2,0.6570308760443843,0.2547733971703809,0.429904880690387,0.5644314776938655,-0.2773173153400421,-0.9607544541358948,-0.006801887881010771,-21.05584716796875,-42.02587127685547,21.18731689453125,2
1596231055.573973,26,0,103387.7778637917,2.625166102811672,-1.605570846323442,1.294271612648751,0.4770548641681671,-0.07932143658399582,-0.1731653660535812,-0.2052750587463379,0.01874375343322754,-0.02582180500030518,2,0.6617903588989904,0.2584173753482323,0.4251339178221221,0.5608166205661672,-0.2728495299816132,-0.9620100259780884,0.009492037817835808,-21.06808471679688,-41.79725646972656,21.63763427734375,2
1596231055.604095,27,0,103387.8079617917,2.692391334061797,-1.664835093780746,1.301007186144684,0.6793329119682312,0.5237908959388733,-0.4104334712028503,-0.2965253293514252,0.02563643455505371,-0.03719258308410645,2,0.6645277478113758,0.2663014470014234,0.422429979967879,0.5559133462419487,-0.2653518319129944,-0.9638271331787109,0.02502717636525631,-20.56354522705078,-41.57981872558594,22.4547119140625,2
1596231055.634216,28,0,103387.8380607917,2.76572771465064,-1.709953160823651,1.312849591624059,0.5143665671348572,1.070520758628845,-0.4127857685089111,0.02878865599632263,-0.03411340713500977,0.209020733833313,2,0.6620420654271022,0.2817664096975274,0.4246701463824782,0.5495120840595882,-0.2526309192180634,-0.9669157862663269,0.03538401052355766,-20.28433227539062,-41.15934753417969,22.8314208984375,2
1596231055.664649,29,0,103387.8681587917,2.82134225622891,-1.729529854243459,1.316092456672196,0.2993135452270508,0.973239541053772,0.07052237540483475,0.2476146519184113,-0.05412387847900391,0.2229191064834595,2,0.6576140399239193,0.2957316131594278,0.4325723855208022,0.5412652777201746,-0.2487928420305252,-0.9677379727363586,0.03982682526111603,-20.81756591796875,-40.91671752929688,22.77597045898438,2
1596231055.6945,30,0,103387.8982567917,2.844511438792237,-1.735790753595659,1.312115915422433,0.2576921880245209,0.2423129081726074,0.04601373896002769,0.4056673049926758,0.05270218849182129,0.05949068069458008,2,0.6562801804264653,0.3005061767347559,0.4377173059135886,0.5360933409384988,-0.2523316740989685,-0.9667283892631531,0.04201527312397957,-21.48075103759766,-40.99295806884766,22.70327758789062,2
1596231055.724965,31,0,103387.9283547917,2.861697486112953,-1.752747850919711,1.305065652370644,0.0832299143075943,-0.4050348997116089,0.4181558787822723,0.2010961472988129,-0.05559587478637695,0.09718358516693115,2,0.6587830874764078,0.2996078085428794,0.4384090829450812,0.5329518297041945,-0.2582799196243286,-0.9649008512496948,0.0475199893116951,-21.64194488525391,-40.77438354492188,22.76290893554688,2
1596231055.75467,32,0,103387.9584537917,2.862965696436995,-1.76537990127767,1.290510514329345,0.1016689166426659,-0.1491744220256805,0.4918410778045654,0.02689370512962341,-0.0512738823890686,0.07628512382507324,2,0.664203861826075,0.2925366286702219,0.4379666351922837,0.5305102001160901,-0.2714109420776367,-0.9609764218330383,0.05348889902234077,-21.96604919433594,-40.15027618408203,23.42987060546875,2
1596231055.784674,33,0,103387.9885517917,2.850917996975159,-1.755740548046354,1.273872797446601,-0.1103350222110748,-0.2615903913974762,0.6390509605407715,0.05507761240005493,0.007859706878662109,0.0693289041519165,2,0.6670215382969564,0.2863281713505554,0.441854916419982,0.5271269855232628,-0.287590891122818,-0.9562411308288574,0.05380310863256454,-22.56080627441406,-40.02956390380859,23.350341796875,2
1596231055.814824,34,0,103388.018649875,2.820800322299648,-1.740331873481129,1.254458882773495,-0.2830131649971008,-0.4220769107341766,0.7314717769622803,0.09464246034622192,-0.03467190265655518,0.2449631690979004,2,0.6714164399446489,0.2746708819184658,0.4436319188752255,0.5262573148550768,-0.306628406047821,-0.9503811597824097,0.05248825997114182,-23.10202026367188,-39.638427734375,23.37252807617188,2
1596231055.844864,35,0,103388.048748875,2.768773280304581,-1.702997309099415,1.236472856987629,-0.5176945924758911,-0.4524610042572021,0.5887179374694824,0.06796166300773621,-0.03963041305541992,0.01459550857543945,2,0.6731783077599496,0.2616437293422086,0.4467949707603951,0.5279658470603846,-0.3252674639225006,-0.9446325302124023,0.04325294867157936,-23.60762786865234,-39.47852325439453,23.412841796875,2
1596231055.874954,36,0,103388.078846875,2.719354751485414,-1.673470331550779,1.216909826489281,-0.5423759818077087,-1.020877480506897,0.888631284236908,0.159035325050354,0.1512033939361572,0.07340133190155029,2,0.6759263445970272,0.2467448205320849,0.448529987155804,0.5301524734021346,-0.3447217047214508,-0.9380329251289368,0.03551885858178139,-24.08135986328125,-39.32893371582031,23.0987548828125,2
1596231055.905096,37,0,103388.108944875,2.66429674683294,-1.664148659769207,1.194055799026002,-0.6495257616043091,-1.240143656730652,0.6504029631614685,0.1896003782749176,-0.08859562873840332,0.5271885395050049,2,0.6835882045993112,0.2232801984279604,0.4428270100449763,0.5354976102568614,-0.3662906289100647,-0.9298686981201172,0.0342937596142292,-24.31504058837891,-39.30188751220703,23.06365966796875,2
1596231055.935219,38,0,103388.139043875,2.585046547244769,-1.615751280936418,1.173259414415173,-1.139902353286743,-0.613476574420929,1.006013631820679,0.1199732720851898,-0.2959877252578735,0.2978576421737671,2,0.6838947089493521,0.2024530230591235,0.4434514383603829,0.5428183551635157,-0.3867577612400055,-0.9220173954963684,0.0173983983695507,-24.36000823974609,-39.39994812011719,22.9249267578125,2
1596231055.965239,39,0,103388.169141875,2.505523235901747,-1.557120114022345,1.140249614980193,-1.080822706222534,-0.5378876328468323,1.149298667907715,0.187283992767334,-0.1145050525665283,-0.001698851585388184,2,0.6816911546968324,0.1801201001645418,0.450744298806858,0.5474337491468444,-0.4173291623592377,-0.9087377190589905,-0.005707838106900454,-24.95574951171875,-39.26397705078125,22.32171630859375,2
1596231055.995416,40,0,103388.199239875,2.402478347876086,-1.502835225158895,1.097863745658541,-1.909820437431335,-2.3956618309021,1.708122253417969,0.4599631130695343,-0.5421063899993896,-0.3102927207946777,2,0.680777288779936,0.1451760342614776,0.4526192621711363,0.5573169111601501,-0.4544477164745331,-0.8902363181114197,-0.03093240410089493,-26.13650512695312,-39.35842895507812,21.03997802734375,2
1596231056.025412,41,0,103388.229338875,2.28471298720703,-1.494272797118091,1.026866603402959,-2.394348382949829,-3.171935319900513,2.676281452178955,0.5206928253173828,-0.707266628742218,0.211228609085083,2,0.6881266625852698,0.0818562191145541,0.4426194062759884,0.5690953366840024,-0.5159884691238403,-0.8556816577911377,-0.03956251218914986,-26.47299194335938,-39.40782165527344,20.859375,2
1596231056.055724,42,0,103388.259436875,2.158704908429424,-1.483965602905066,0.9350827043426641,-2.862944841384888,-2.982341289520264,2.832987546920776,0.4498506784439087,-1.005985379219055,-0.1597803235054016,2,0.6886120375253343,0.008238632457520212,0.4364258304423511,0.5790321975525239,-0.5915153026580811,-0.8046481609344482,-0.05149117484688759,-27.919677734375,-38.66981506347656,20.21771240234375,2
1596231056.087495,43,0,103388.289534875,2.030177347788107,-1.481100360493508,0.8428699127769621,-3.029419660568237,-4.030654430389404,2.856924772262573,1.36961030960083,-0.7665578722953796,0.1107819080352783,2,0.6823037521228534,-0.06828742656090214,0.4265695833462385,0.5897771238499779,-0.6626487970352173,-0.7465556263923645,-0.05959683284163475,-28.82780456542969,-38.24348449707031,19.831787109375,2
1596231056.115877,44,0,103388.319633875,1.901698592646519,-1.560512439426946,0.7327962154971382,-3.23697304725647,-7.303579330444336,4.390030384063721,1.165411591529846,-0.05767011642456055,0.7882117033004761,2,0.6824842449945758,-0.1743366865691112,0.3936548806392572,0.5906419631166966,-0.7432676553726196,-0.6689506769180298,-0.007643950171768665,-29.70656585693359,-37.57051086425781,20.10247802734375,2
1596231056.14601,45,0,103388.349731875,1.763130253271881,-1.71248786904734,0.5867199989627327,-3.629468441009521,-7.698982238769531,5.415140151977539,0.4974397420883179,0.07011985778808594,1.236061453819275,2,0.6785563760690614,-0.3136266290711278,0.3451848103678009,0.5674921589860786,-0.8244160413742065,-0.5536325573921204,0.1176008358597755,-30.23484802246094,-35.29468536376953,23.38262939453125,2
1596231056.178788,46,0,103388.379829875,1.594575388574784,-1.820564463485555,0.4675507915219455,-3.927739143371582,-4.255746841430664,3.894637584686279,-0.4138925075531006,0.3099862337112427,0.710105299949646,2,0.6489116156154676,-0.4350162272116108,0.2992092957039958,0.5478581931832323,-0.8649751543998718,-0.4507012963294983,0.2206508070230484,-30.23331451416016,-34.165283203125,24.406005859375,2
1596231056.206006,47,0,103388.409927875,1.460124621430229,-1.822489357925016,0.4189616197902135,-3.306363821029663,-0.3297170400619507,1.468646645545959,-0.5501757860183716,0.3450942635536194,0.4485636949539185,2,0.6104688409038642,-0.4909991415479712,0.2772741466993958,0.5562076148836067,-0.8847293853759766,-0.4068121016025543,0.2275047302246094,-31.34746551513672,-34.13405609130859,23.01922607421875,2
1596231056.236217,48,0,103388.440026875,1.329557020429699,-1.747212277772124,0.415562009960126,-4.462048053741455,1.623569488525391,0.6274499297142029,0.1568929553031921,0.08612954616546631,0.4647185802459717,2,0.5670081995600106,-0.5087084862766156,0.2630879657620234,0.5920322962986168,-0.9006897807121277,-0.4037041664123535,0.1605652421712875,-32.51720428466797,-34.8753662109375,20.4813232421875,2
1596231056.266268,49,0,103388.470124875,1.170432768942788,-1.635182805860777,0.4213730896191675,-4.854965686798096,0.9771509766578674,0.03170813620090485,0.2798629999160767,0.3607539534568787,0.1221799850463867,2,0.5132892858685336,-0.5156462605008387,0.2422884338765641,0.6418252719687084,-0.9106377363204956,-0.4090138077735901,0.05871391296386719,-34.19926452636719,-36.924072265625,12.461181640625,2
1596231056.296417,50,0,103388.500222875,1.016088956284936,-1.574133437532921,0.44518234667616,-4.759200096130371,-1.269021511077881,-1.436424970626831,0.2516971230506897,0.7883319854736328,0.03619742393493652,2,0.472214386714121,-0.5277494629250817,0.198328346450912,0.6776136388981696,-0.9025274515151978,-0.4306224584579468,0.003011845285072923,-34.20552062988281,-37.80247497558594,8.9444580078125,2
1596231056.328295,51,0,103388.530321875,0.8556560861143049,-1.581978975335552,0.4963827467371572,-4.509794235229492,-3.609775066375732,-1.693229079246521,0.1906893253326416,0.5973153114318848,-0.0377044677734375,2,0.4431311168523291,-0.5554738741118532,0.1238645444930672,0.6926336066938422,-0.8792561888694763,-0.4762479662895203,0.009832822717726231,-31.7626953125,-40.67465209960938,4.214141845703125,2
1596231056.356586,52,0,103388.560419875,0.7033253377382385,-1.599549892674188,0.5453312292286514,-4.532804012298584,-2.486930370330811,-1.344651222229004,-0.04826456308364868,-0.0003598332405090332,0.3705927133560181,2,0.414100417623271,-0.5837899147425034,0.04985324788963663,0.696580982935414,-0.8546023964881897,-0.5187013149261475,0.02457964047789574,-30.31993103027344,-41.85034942626953,2.381103515625,2
1596231056.386639,53,0,103388.590517875,0.5396209039917553,-1.59859161524957,0.5880448761777195,-4.518238544464111,-3.751567363739014,-1.352911949157715,-0.1402647495269775,-0.05002337694168091,0.3284132480621338,2,0.3776244534828029,-0.6074220108754856,-0.0223688278116414,0.6985256477404437,-0.8317056894302368,-0.5547353625297546,0.02312345430254936,-28.19767761230469,-43.03971099853516,-1.992828369140625,2
1596231056.416822,54,0,103388.620616875,0.3841696961851558,-1.655472409903335,0.6379319519909596,-4.066181659698486,-5.697440147399902,-1.471374154090881,0.4631952047348022,0.1585476994514465,0.2705078125,2,0.3417445987592687,-0.6458958073536417,-0.1040356077084165,0.674689620503311,-0.8004511594772339,-0.5955353975296021,0.06794153153896332,-27.30680847167969,-43.38283538818359,-3.795013427734375,2
1596231056.446883,55,0,103388.650714875,0.2407788973439895,-1.734717240169153,0.6915728951922571,-3.784286499023438,-4.902326583862305,-1.030272483825684,0.504895806312561,0.06038576364517212,0.5144755840301514,2,0.3038208504222106,-0.6859592689430074,-0.1835230786649398,0.6351946701287724,-0.7599190473556519,-0.6377494931221008,0.1256944537162781,-26.43492889404297,-43.85169219970703,-5.467071533203125,2
1596231056.478998,56,0,103388.680812875,0.116181732223816,-1.782536531658819,0.7416687794126497,-2.286710500717163,-4.550224781036377,-1.321443438529968,-0.4899346232414246,0.1882020235061646,0.4330153465270996,2,0.2694450151947601,-0.7105490305934645,-0.2474138126479825,0.60108743076618,-0.7208753228187561,-0.6755192875862122,0.1549610793590546,-26.01979064941406,-43.82023620605469,-6.39599609375,2
1596231056.506915,57,0,103388.710911875,0.1103055835862213,-1.886688187129187,0.7619652910557121,0.5333317518234253,-0.7163794040679932,1.124663233757019,-1.185391187667847,-0.2001030445098877,1.398321866989136,2,0.2593906072157788,-0.7383064211067365,-0.270508074688073,0.560754557776847,-0.6876828670501709,-0.6903446316719055,0.2247597128152847,-25.33320617675781,-44.1341552734375,-5.714599609375,2
1596231056.537064,58,0,103388.741009875,0.05114367855864199,-1.811833871591068,0.7147287392624695,-0.3490923345088959,1.197317242622375,1.427240967750549,-0.5720019936561584,0.4360660314559937,0.2275865077972412,2,0.2345987488508388,-0.7315114310915818,-0.2604258618514168,0.5848359741493813,-0.7334372401237488,-0.6554125547409058,0.180291086435318,-26.33629608154297,-43.56144714355469,-5.809722900390625,2
1596231056.567155,59,0,103388.771107875,0.08023750225264083,-1.768319974768226,0.7297674182925833,0.7619448304176331,1.946735620498657,-2.29367470741272,0.4423910975456238,0.6891902089118958,0.288191556930542,2,0.255010032564804,-0.712812947387363,-0.2520001416248345,0.6027966283407769,-0.730837345123291,-0.666696310043335,0.146264836192131,-27.12849426269531,-42.69113922119141,-7.77099609375,2
1596231056.597367,60,0,103388.801206875,0.09786219229254098,-1.768959412174101,0.7952980910652514,-0.1821162849664688,-0.6490073204040527,-1.55921196937561,0.7835550904273987,-0.1850493550300598,0.1261119842529297,2,0.2799897290089554,-0.7003691047668175,-0.2706373701356085,0.5982009014340107,-0.6863715052604675,-0.7140723466873169,0.1378222554922104,-25.32300567626953,-43.73819732666016,-8.03656005859375,2
1596231056.628447,61,0,103388.831304875,0.09998771181615754,-1.796478428769693,0.8030821806395604,-0.2981794476509094,-0.6712957620620728,0.7928483486175537,0.506904661655426,-0.9039576649665833,0.09908246994018555,2,0.2791640445405958,-0.7069449482720619,-0.2766867899229219,0.5879972827645766,-0.6768814325332642,-0.7195000648498535,0.1554074436426163,-23.19184112548828,-44.78753662109375,-7.71337890625,2
1596231056.65763,62,0,103388.861402875,0.07944025633347673,-1.79445661266813,0.7810864525441604,-0.015467862598598,-0.1436345130205154,0.4831142425537109,-0.2852681279182434,-0.0899694561958313,-0.399754524230957,2,0.2659796241965118,-0.712748541608188,-0.2744086026324313,0.5881704587062685,-0.6924610733985901,-0.7040513753890991,0.157511293888092,-24.23033142089844,-44.22201538085938,-7.810028076171875,2
1596231056.68756,63,0,103388.891500875,0.0841616324795323,-1.785521600017987,0.7837566616308939,0.1919383555650711,0.8760272264480591,-0.5707035064697266,-0.1522958278656006,0.00457155704498291,-0.1534144878387451,2,0.2696353254181254,-0.7090523213610311,-0.2727946740016558,0.5917134889718488,-0.6920014619827271,-0.7059451341629028,0.150916799902916,-24.40950775146484,-44.26231384277344,-8.021728515625,2
1596231056.717802,64,0,103388.921599875,0.09299494937988873,-1.762666931306236,0.7946366258693591,0.004781493917107582,0.9962124824523926,-0.05685286596417427,-0.07123410701751709,-0.2940855026245117,0.03030478954315186,2,0.2789499720722363,-0.6992726715378126,-0.2709765326756273,0.599813870029883,-0.6876891255378723,-0.7136090993881226,0.1335907131433487,-23.62164306640625,-44.72148132324219,-8.41534423828125,2
1596231056.747876,65,0,103388.951697875,0.09282425067502846,-1.721007589452711,0.7929983948296953,0.07684148848056793,1.915602564811707,-0.02943481877446175,-0.1716711521148682,-0.2222518920898438,0.1759049892425537,2,0.2839938825067404,-0.6869148932592156,-0.2645784898255075,0.6144052628326955,-0.6938108801841736,-0.712460458278656,0.1050091907382011,-23.43724060058594,-44.71276092529297,-8.857696533203125,2
1596231056.778622,66,0,103388.981795875,0.1050231978456746,-1.658083948871682,0.7987725981680923,0.5146211981773376,2.751090526580811,-0.3555517792701721,0.09563881158828735,-0.004304111003875732,0.2639106512069702,2,0.2979927780077606,-0.6645351817732916,-0.2536311200216715,0.6366040299895962,-0.6949310898780823,-0.7165004014968872,0.06081340834498405,-22.3397216796875,-44.63681793212891,-10.17160034179688,2
1596231056.807977,67,0,103389.011896,0.1375718375545165,-1.586483065074179,0.8087897269620939,1.158788800239563,3.584446907043457,-0.3054315149784088,0.2435823678970337,0.02296185493469238,0.487789511680603,2,0.3204061289112738,-0.6346294632649504,-0.2354016924816573,0.6627002808865027,-0.6902899742126465,-0.7234521508216858,0.01082928571850061,-21.43711090087891,-44.91012573242188,-10.78842163085938,2
1596231056.838106,68,0,103389.041994,0.1961672471607425,-1.516602697020169,0.8132568830133986,1.364635705947876,3.731186151504517,0.06130081787705421,0.07798498868942261,-0.03170382976531982,0.6708580851554871,2,0.3476175519868507,-0.6004597857583367,-0.2053860738095426,0.6902367073800079,-0.6861271858215332,-0.7265289425849915,-0.03722016513347626,-19.40480041503906,-45.43872833251953,-11.15142822265625,2
1596231056.868183,69,0,103389.072092,0.2702384237876051,-1.462653318603555,0.8116856659996697,2.302959680557251,3.46642541885376,0.3375119864940643,0.4189070463180542,-0.1362539529800415,0.4334295392036438,2,0.3738201343816806,-0.5684319228037631,-0.169144704877251,0.7131155603698169,-0.6842558979988098,-0.7254484295845032,-0.07428731024265289,-18.35774230957031,-45.74235534667969,-10.9114990234375,2
1596231056.898313,70,0,103389.102191,0.3954947487718951,-1.461342106055149,0.8048028193873085,2.958827495574951,3.092422485351562,0.7753108143806458,0.4383038282394409,0.2493371367454529,0.4155268669128418,2,0.4066120245634259,-0.544795931854287,-0.1216446709089579,0.7232335514850601,-0.6891050338745117,-0.7206939458847046,-0.07572811096906662,-17.77071380615234,-46.81900787353516,-8.555145263671875,2
1596231056.929548,71,0,103389.132289,0.548425585569758,-1.46872937606322,0.7903670232023785,4.356299877166748,3.705710649490356,0.6847752332687378,-0.6401447653770447,0.6858617067337036,0.2517022490501404,2,0.4425502563075333,-0.5179818514899903,-0.06283737538835371,0.7293118723081995,-0.6999232172966003,-0.7106115818023682,-0.07168814539909363,-17.89772796630859,-47.04548645019531,-6.9326171875,2
1596231056.9586,72,0,103389.162387,0.7543276100984535,-1.490881016531657,0.8018225693370372,4.935253620147705,4.665864944458008,-0.4990265965461731,-0.9066257476806641,0.580186128616333,0.4238870143890381,2,0.4965995983422541,-0.4750072807656759,0.003049755392537767,0.726462535894917,-0.6931790113449097,-0.7186247110366821,-0.05551384389400482,-18.28526306152344,-47.50715637207031,-1.313995361328125,2
1596231056.988686,73,0,103389.192486,0.9600402429181679,-1.490501819615839,0.8258098880558961,4.488939762115479,4.991141319274902,-0.144511491060257,-0.1394321918487549,0.05283463001251221,0.4845792651176453,2,0.5484249891995001,-0.4147782007274871,0.06948986238785687,0.7227450173300867,-0.6757777333259583,-0.7350971102714539,-0.05437815189361572,-17.54320526123047,-47.62129974365234,1.789825439453125,2
1596231057.018676,74,0,103389.222584,1.143753790760631,-1.488792179170954,0.826777523570012,3.777331113815308,4.053443431854248,0.729973316192627,0.2339906096458435,-0.1479931473731995,0.1869246959686279,2,0.5842462749730815,-0.3618269244588295,0.135662185478292,0.7136761247550614,-0.6749747395515442,-0.7357527613639832,-0.0554751344025135,-18.02637481689453,-47.16088104248047,7.178314208984375,2
1596231057.048763,75,0,103389.252682,1.305800878892706,-1.499194625028167,0.8084390586441574,3.489087820053101,3.230665683746338,0.8861293792724609,0.02583801746368408,-0.08754360675811768,-0.03085082769393921,2,0.6092263162312657,-0.3227062622708723,0.1959689381271942,0.6973523715757446,-0.6888588070869446,-0.7232100367546082,-0.04940792918205261,-19.34841918945312,-46.41033172607422,9.24005126953125,2
1596231057.079429,76,0,103389.28278,1.450684143395995,-1.511080565301634,0.794551195356762,3.193322658538818,2.993454217910767,0.4884902834892273,-0.07940924167633057,-0.09988629817962646,0.02078962326049805,2,0.6301855173758786,-0.2862866640961491,0.2467624255723516,0.6782437883039184,-0.6993564963340759,-0.7135492563247681,-0.04181231930851936,-22.09101867675781,-44.50588989257812,12.98837280273438,2
1596231057.108999,77,0,103389.312879,1.583083190754483,-1.513529824014658,0.7875127075862077,2.962621450424194,3.022496223449707,0.3503881990909576,0.1190112829208374,-0.1405327320098877,0.09694933891296387,2,0.6471023142255349,-0.2471147801706033,0.2925634218846367,0.6592418852316244,-0.7044537663459778,-0.7086004018783569,-0.04038576036691666,-24.54486846923828,-42.46903991699219,15.83282470703125,2
1596231057.13912,78,0,103389.342977,1.70451566722234,-1.509537665863128,0.7880543468848377,2.728416442871094,2.989621162414551,-0.1102747395634651,0.1118922233581543,-0.08767044544219971,0.1446982622146606,2,0.6603068521668858,-0.2059314360962723,0.3331751421705531,0.6407664543590844,-0.7039035558700562,-0.7089824676513672,-0.04317421093583107,-25.55292510986328,-41.44601440429688,16.79412841796875,2
1596231057.169167,79,0,103389.373075,1.817155123291815,-1.499062992845255,0.8039362978030562,2.574718713760376,3.084879398345947,-0.5778554081916809,0.1455730795860291,-0.05586731433868408,0.2238708734512329,2,0.6705526600684671,-0.1596664675844981,0.3673807800003537,0.6244175916885195,-0.6920934319496155,-0.7200929522514343,-0.04973149672150612,-27.16278076171875,-39.79573822021484,18.12808227539062,2
1596231057.199637,80,0,103389.403174,1.923945949241915,-1.484998848673721,0.8322227976446778,2.416739702224731,3.08421802520752,-0.8887667059898376,0.2728980183601379,-0.1268391609191895,0.3228527307510376,2,0.677635411705875,-0.109383619312402,0.3965234788414105,0.6096021484215834,-0.6707576513290405,-0.7394296526908875,-0.05769094452261925,-27.63992309570312,-39.26728057861328,18.58151245117188,2
1596231057.229383,81,0,103389.433272,2.026262675390887,-1.471841206897,0.8695709551392378,2.241145133972168,2.820241451263428,-1.192201733589172,0.2301298379898071,-0.2585373520851135,0.3883239030838013,2,0.6817993455489519,-0.05728035004686949,0.4207676279984221,0.5956705931973786,-0.6419986486434937,-0.7640522122383118,-0.06373722851276398,-28.36992645263672,-38.39031219482422,19.0146484375,2
1596231057.262707,82,0,103389.46337,2.113938904403669,-1.45346768710862,0.9170999539803075,1.787136793136597,3.033832311630249,-1.532134890556335,0.2793782353401184,-0.2252988815307617,0.3515651226043701,2,0.6814572749082436,-0.004745833379276199,0.4390493854059355,0.5855162974969634,-0.6039443016052246,-0.7938413619995117,-0.07118692249059677,-28.68999481201172,-38.29790496826172,19.27651977539062,2
1596231057.289575,83,0,103389.493469,2.1936958141592,-1.430516456336679,0.9727453247537309,1.777962446212769,2.716139078140259,-1.750285983085632,0.3766412138938904,0.01131325960159302,0.2077929377555847,2,0.6769055106975272,0.04936811950569298,0.4539093082887547,0.5773458949435886,-0.5575024485588074,-0.8264345526695251,-0.07872343808412552,-28.4012451171875,-38.51322174072266,18.81558227539062,2
1596231057.319987,84,0,103389.523567,2.270299242014142,-1.413956164880866,1.039113379948666,1.515052914619446,3.035433053970337,-2.309938192367554,0.5321276187896729,0.07859081029891968,0.3729848861694336,2,0.6704662347271042,0.1043072966614746,0.4622586824094584,0.570887180154992,-0.5007622838020325,-0.8619550466537476,-0.07919003069400787,-27.96605682373047,-38.63569641113281,18.9107666015625,2
1596231057.350069,85,0,103389.553665,2.327066365808268,-1.353010457952372,1.123354454756408,1.316947340965271,4.228132247924805,-2.673327207565308,0.3714227080345154,0.06203973293304443,0.337397575378418,2,0.6510465086902564,0.1714533924039227,0.4739064753358629,0.5675870285321294,-0.4224408566951752,-0.9015568494796753,-0.09348435699939728,-26.89287567138672,-40.12329864501953,17.98455810546875,2
1596231057.380231,86,0,103389.583764,2.39664596085555,-1.283791881679367,1.20291829166935,1.752333760261536,4.232371807098389,-1.779816269874573,0.09103679656982422,-0.3184480667114258,0.212640643119812,2,0.6247341789369387,0.2424956493761969,0.4918293116725549,0.5558841408465267,-0.3449261784553528,-0.9330925941467285,-0.1018061339855194,-26.35823059082031,-40.73416137695312,17.08197021484375,2
1596231057.411841,87,0,103389.613862,2.461637176558251,-1.241864785462687,1.25069804639581,0.2183971256017685,2.164674520492554,-1.12725293636322,0.5421195030212402,-0.6102030277252197,-0.315827488899231,2,0.6034625393444466,0.2915652091463026,0.5081073838517333,0.5409711323566765,-0.2977908253669739,-0.9492045044898987,-0.1016453877091408,-26.40642547607422,-41.34405517578125,15.9637451171875,2
1596231057.440368,88,0,103389.64396,2.424818490610459,-1.227326699129367,1.276290564144305,-0.1373757719993591,-3.426134824752808,-0.3260813057422638,1.142196536064148,-0.3697341084480286,-0.7260277271270752,2,0.6039770476667859,0.2938316379774394,0.4946032656709756,0.5515818416614444,-0.2733136415481567,-0.9569457173347473,-0.09774938970804214,-25.79608154296875,-41.78218841552734,15.47018432617188,2
1596231057.47042,89,0,103389.674059,2.439968820147737,-1.353763129176269,1.261704306084432,0.2101289182901382,-3.039750576019287,0.9774218201637268,0.3958081603050232,0.1722420454025269,0.3177715539932251,2,0.6330115086198989,0.257962799900926,0.464184975835673,0.5632798475377965,-0.2970583736896515,-0.9526101350784302,-0.06550324708223343,-23.82398223876953,-42.26377105712891,17.52981567382812,2
1596231057.500356,90,0,103389.704157,2.503227643639532,-1.445068919278991,1.251206829047,0.8931721448898315,0.8166079521179199,-0.3432645797729492,-0.9989567995071411,0.06143808364868164,-0.02229541540145874,2,0.6468099804692307,0.2488744362005237,0.4558402367155781,0.5584874432806632,-0.3116975426673889,-0.9493644833564758,-0.0393967293202877,-23.50522613525391,-41.77404022216797,18.67620849609375,2
1596231057.530387,91,0,103389.734255,2.583805592822622,-1.484320134034532,1.278515286382955,0.9530158042907715,1.459289073944092,-1.016155004501343,-0.6980677843093872,0.1503126621246338,-0.00970923900604248,2,0.6425083704593781,0.2733861519115717,0.4576190464775871,0.5504797499644446,-0.2870610654354095,-0.9575890898704529,-0.02488601207733154,-23.41651153564453,-41.45582580566406,19.72061157226562,2
1596231057.562728,92,0,103389.764354,2.683963754991844,-1.531786129100594,1.309038081474707,0.8775998950004578,1.654049396514893,-0.8710318803787231,0.3251230716705322,0.1264266967773438,0.3335385322570801,2,0.6351219673851132,0.3026116827282076,0.4611902667365763,0.5406940586595712,-0.2585834562778473,-0.9659364819526672,-0.01009251177310944,-23.15421295166016,-41.38372802734375,20.03036499023438,2
1596231057.590614,93,0,103389.794452,2.760664038629976,-1.575660027564953,1.32891036764118,0.4080207347869873,0.08168593049049377,-0.2955687344074249,0.5245730876922607,-0.2583696842193604,0.2445189952850342,2,0.6302776471795334,0.3214538822693029,0.462528608888797,0.5343079508407541,-0.2395321577787399,-0.9708879590034485,0.001165021909400821,-22.96041870117188,-41.48347473144531,20.10110473632812,2
1596231057.62108,94,0,103389.82455,2.784148185616666,-1.608814594933869,1.329586473612872,0.04066512733697891,-0.4353435933589935,0.118879497051239,0.4243397116661072,-0.09856826066970825,0.223479151725769,2,0.6340292585642894,0.320229108390089,0.4581452268603961,0.5343813353826713,-0.238706037402153,-0.9710496664047241,0.009079565294086933,-22.59870147705078,-41.22661590576172,20.71859741210938,2
1596231057.650791,95,0,103389.854648,2.7902612129314,-1.631182576812096,1.324658875019034,0.08570779860019684,-0.7307089567184448,0.1741815954446793,0.0198858380317688,0.1083717346191406,-0.04964983463287354,2,0.639005396923456,0.3146816071474562,0.4539390448848342,0.5353384089093474,-0.2432166934013367,-0.9698607921600342,0.01470482256263494,-22.51712799072266,-41.30321502685547,20.9976806640625,2
1596231057.680961,96,0,103389.884747,2.79781423897654,-1.65455536472497,1.324648916134282,0.02795730717480183,-0.2456633746623993,-0.2255633324384689,-0.3284814655780792,0.01277297735214233,0.145228385925293,2,0.6430990456496652,0.3108319457019615,0.4484754393525167,0.5372869020339532,-0.2428163886070251,-0.9698583483695984,0.02038576267659664,-22.18289184570312,-41.40607452392578,21.4547119140625,2
1596231057.71216,97,0,103389.914845,2.804438606436168,-1.660630660384478,1.333930508792351,0.0366155281662941,0.2265263348817825,-0.3355980217456818,-0.09842365980148315,0.02649843692779541,0.006841897964477539,2,0.6417613195047964,0.3141152958304367,0.4459439123737226,0.5390809458343897,-0.2337119728326797,-0.9720782041549683,0.02105201967060566,-21.72209930419922,-41.33944702148438,21.72720336914062,2
1596231057.741134,98,0,103389.944943,2.814879247780197,-1.660393815823679,1.342322288724734,0.05257415771484375,0.310823380947113,-0.1774466931819916,0.1515300571918488,0.05305707454681396,0.002298593521118164,2,0.6385255869796136,0.3200282788241433,0.4467002706664752,0.5388192131686377,-0.2255843281745911,-0.9740131497383118,0.02026604861021042,-21.64040374755859,-41.56985473632812,21.43838500976562,2
1596231057.771184,99,0,103389.975042,2.814593589201521,-1.654967267763283,1.344276688697984,-0.1219293549656868,-0.03116853907704353,0.03236769512295723,0.1981761455535889,-0.08104777336120605,0.154474139213562,2,0.6369996287795651,0.3219817083672395,0.4478563302333106,0.5385017644494612,-0.2237931936979294,-0.9744539260864258,0.01888149604201317,-21.75125122070312,-41.68539428710938,21.27044677734375,2
1596231057.801466,100,0,103390.00513925,2.801164984840495,-1.648433226958434,1.340297031350733,-0.03837534412741661,-0.4563398063182831,0.2245701551437378,0.1796155273914337,0.03618729114532471,0.09068012237548828,2,0.638408277917736,0.3182680878015914,0.447337963968008,0.5394711131926628,-0.2277756333351135,-0.9735524654388428,0.01771941035985947,-21.50083160400391,-41.61309051513672,21.23626708984375,2
1596231057.831322,101,0,103390.03523725,2.77395831868495,-1.635171408049012,1.336470984678737,-0.2436333447694778,-0.2673726975917816,0.09698108583688736,0.09272006154060364,0.02279680967330933,-0.03329920768737793,2,0.6404107867890971,0.3119974737249323,0.4452086578025219,0.542513704215084,-0.2317070364952087,-0.9726712107658386,0.01493679918348789,-21.79071044921875,-41.45840454101562,21.55880737304688,2
1596231057.863247,102,0,103390.06533625,2.747230031369485,-1.609528957286753,1.32770446326493,-0.2352764457464218,0.1010482013225555,0.5214016437530518,-0.001276314258575439,-0.08417809009552002,0.04165387153625488,2,0.640301395639109,0.3076922513318561,0.4484734717270429,0.5424123463639499,-0.2405242323875427,-0.9705983996391296,0.009320797398686409,-21.84092712402344,-41.32894134521484,21.23037719726562,2
1596231057.891566,103,0,103390.09543425,2.717226253652212,-1.570778470396819,1.313613360130311,-0.1913868635892868,0.4653694927692413,0.3035674095153809,-0.1480177342891693,0.05687803030014038,-0.1102076768875122,2,0.6383526427588693,0.304144098292248,0.4565129301114674,0.5399984851867492,-0.2543577551841736,-0.9671103358268738,-4.541913313005352e-06,-22.278564453125,-41.25347900390625,21.05502319335938,2
1596231057.921686,104,0,103390.12553225,2.693187939949212,-1.539685638406419,1.307372188587799,-0.2742724716663361,0.1125127524137497,0.2309953719377518,-0.009660959243774414,-0.03543353080749512,-0.08187413215637207,2,0.6357843870268569,0.3028670169960767,0.4616293142989562,0.5393962658009805,-0.2602627575397491,-0.9655040502548218,-0.008099566213786602,-23.11734008789062,-41.41286468505859,20.3648681640625,2
1596231057.951735,105,0,103390.15563125,2.669522448330677,-1.512609446337848,1.297053480648434,-0.2079644650220871,0.1727662235498428,0.3912081718444824,0.08361566066741943,0.07067710161209106,0.1509659290313721,2,0.6344906481154049,0.2992674733664821,0.4666975647898992,0.5385666544014776,-0.2698795199394226,-0.9627658128738403,-0.01572119444608688,-23.34389495849609,-41.24136352539062,20.08126831054688,2
1596231057.981715,106,0,103390.18572925,2.637894499855997,-1.483244320014189,1.288699354933068,-0.399960845708847,-0.2551117837429047,0.02683757245540619,-0.1627930402755737,0.02968752384185791,0.1804112195968628,2,0.6333819375471995,0.2943754646491142,0.4698154446167364,0.5398555717650426,-0.2773047685623169,-0.9604738354682922,-0.02434081397950649,-23.92116546630859,-41.163818359375,19.68673706054688,2
1596231058.012207,107,0,103390.21582725,2.582548800120931,-1.431192090978444,1.288485890382894,-0.6001067757606506,0.1809652894735336,0.03324349597096443,-0.09377121925354004,-0.1250969171524048,0.09623372554779053,2,0.629257412164954,0.2909518696348225,0.4712945359990672,0.5452190991743826,-0.2758661210536957,-0.9604143500328064,-0.03876423835754395,-24.07646179199219,-41.7032470703125,18.95858764648438,2
1596231058.042083,108,0,103390.24592625,2.532006160036683,-1.372875094932951,1.283350671681964,-0.3029203712940216,0.5113845467567444,0.05326607078313828,0.1044213473796844,0.1180998086929321,-0.08355605602264404,2,0.6232573755586486,0.2892703374466302,0.4772531735740745,0.5478160570995295,-0.2779692411422729,-0.9589711427688599,-0.05574583262205124,-23.99486541748047,-41.89997863769531,18.35952758789062,2
1596231058.072188,109,0,103390.27602425,2.506381706991121,-1.336900522443223,1.280719479372569,-0.2587515711784363,0.0377829410135746,0.08057042211294174,0.05842962861061096,0.02677929401397705,-0.2009001970291138,2,0.6185586180320709,0.2902398572297532,0.4821861136857946,0.5483091016994002,-0.278238445520401,-0.9582219123840332,-0.06629212200641632,-24.54221343994141,-41.69763946533203,17.57217407226562,2
1596231058.102252,110,0,103390.30612225,2.48758979653689,-1.288045187364034,1.280829710848471,-0.3032080233097076,0.7297021150588989,0.002606756985187531,0.3768206238746643,-0.04548460245132446,-0.05663442611694336,2,0.6094144805559234,0.2978728910775824,0.4920114040065696,0.5457202968882584,-0.274567186832428,-0.9582534432411194,-0.07977146655321121,-24.57335662841797,-41.87610626220703,16.96505737304688,2
1596231058.132363,111,0,103390.33622125,2.470856424313843,-1.278503387861287,1.270378397626971,-0.3716412782669067,-0.2728963792324066,0.3672410547733307,-0.1826912760734558,0.07600516080856323,0.2969773411750793,2,0.610196900025357,0.2915908325771264,0.4935246590922243,0.5468713186444261,-0.2833690941333771,-0.9552128911018372,-0.08526905626058578,-25.13777160644531,-42.03639984130859,16.70709228515625,2
1596231058.162492,112,0,103390.36631925,2.436196247085454,-1.249968264562699,1.259576146604014,-0.2777891755104065,-0.06382633000612259,0.1548337638378143,-0.03390026092529297,-0.0751950740814209,-0.04728114604949951,2,0.6087235795982435,0.2849068007510961,0.4960109669834738,0.549778964942695,-0.2905956208705902,-0.9519606232643127,-0.09656743705272675,-25.20551300048828,-42.15312194824219,16.25778198242188,2
1596231058.192542,113,0,103390.39641725,2.411229463351298,-1.223566996359195,1.249285407942624,-0.3706939518451691,0.2456920892000198,0.357377678155899,0.06316018104553223,0.01404255628585815,-0.06391918659210205,2,0.6061250061403518,0.2807951076716587,0.5003120952437909,0.5508671199435916,-0.2971417605876923,-0.9487590789794922,-0.1075331717729568,-25.55599975585938,-41.99472808837891,15.89016723632812,2
1596231058.222588,114,0,103390.42651525,2.405715633463669,-1.213294670868559,1.235684355806143,-0.159687265753746,0.07220775634050369,0.4169318079948425,0.01631411910057068,0.005308628082275391,-0.1043435335159302,2,0.6047984331751695,0.2769050227134826,0.506070168020896,0.5490314722510141,-0.3080817461013794,-0.9443734884262085,-0.1150849238038063,-25.82890319824219,-42.11333465576172,15.32217407226562,2
1596231058.252781,115,0,103390.45661425,2.396783750952138,-1.203228248882311,1.225823586074601,-0.4326023161411285,0.07613839209079742,0.3005955517292023,0.009804755449295044,0.01326560974121094,0.09213852882385254,2,0.6037793444565696,0.2732948240873929,0.5096717759943811,0.5486303569440492,-0.3155829012393951,-0.9410846829414368,-0.121520884335041,-26.63190460205078,-41.95416259765625,15.08245849609375,2
1596231058.282858,116,0,103390.48671225,2.381302857998637,-1.189329609140612,1.219957076854074,-0.0890774130821228,0.1744210124015808,-0.02845941111445427,-0.006386876106262207,0.08780646324157715,0.05010157823562622,2,0.6024875803900385,0.2702490007601117,0.5114026742214599,0.5499470057786596,-0.3189822733402252,-0.9390845894813538,-0.1279483884572983,-26.72092437744141,-41.93331909179688,14.71633911132812,2
1596231058.313047,117,0,103390.51681025,2.369359595835625,-1.169240239037894,1.217610220500217,-0.2072515338659286,0.339429497718811,0.05210335180163383,-0.114851325750351,0.0152243971824646,0.02495843172073364,2,0.5989976674197598,0.2713045853728981,0.5148703846419289,0.5500038491874411,-0.3183752000331879,-0.9382754564285278,-0.1351912319660187,-26.82584381103516,-41.72718811035156,14.54965209960938,2
1596231058.345915,118,0,103390.54690925,2.353248705260941,-1.149987388817973,1.214757913328959,-0.1957588791847229,-0.003144742920994759,-0.05237238109111786,-0.08805117011070251,0.0559227466583252,-0.04413068294525146,2,0.5962542397878327,0.2707154411957143,0.5170622522582115,0.5512175222246808,-0.3181549310684204,-0.9372850656509399,-0.1423880606889725,-26.8839111328125,-41.7431640625,14.221923828125,2
1596231058.373081,119,0,103390.57700725,2.337918979388072,-1.13317176784772,1.216418840940046,-0.09292159974575043,0.1440960615873337,-0.162438228726387,0.02070137858390808,0.02936327457427979,-0.05062711238861084,2,0.5939695908991807,0.2714245577694925,0.5173229719608035,0.5530875480280819,-0.3143051564693451,-0.9378626942634583,-0.1470576673746109,-26.97561645507812,-42.09656524658203,13.78054809570312,2
1596231058.405341,120,0,103390.60710525,2.327370782670515,-1.11559320501793,1.21828990699719,-0.09377067536115646,0.3312036693096161,-0.01985610090196133,0.03147834539413452,-0.008783280849456787,0.01778280735015869,2,0.5908465327285278,0.27387281574809,0.519034485081602,0.5536221414718142,-0.310095340013504,-0.9385102987289429,-0.1517881155014038,-26.88040924072266,-42.10433197021484,13.78775024414062,2
1596231058.433354,121,0,103390.63720425,2.318292430542526,-1.102057742002783,1.216664014654689,-0.1490429937839508,-0.02143628336489201,-0.03017344698309898,-0.03811657428741455,-0.01464837789535522,0.005312323570251465,2,0.5885701345024869,0.2743263917086484,0.5210139902676906,0.5539628343055694,-0.3093732893466949,-0.9379477500915527,-0.1566604524850845,-27.03642272949219,-42.14263153076172,13.0255126953125,2
1596231058.46633,122,0,103390.66730225,2.305178929700284,-1.093567485234168,1.21610956169739,-0.1301954835653305,-0.1164258569478989,-0.05120087042450905,0.06520953774452209,0.02264761924743652,0.03064203262329102,2,0.5881508791389243,0.2726140243661514,0.5200437713773501,0.556160751206352,-0.308493971824646,-0.9377553462982178,-0.1595202684402466,-26.9619140625,-42.36667633056641,13.07391357421875,2
1596231058.495728,123,0,103390.69740025,2.298626552755786,-1.092527703954908,1.212143385467468,-0.1151713654398918,-0.1869417130947113,0.1906133890151978,0.03548827767372131,-0.02467000484466553,0.00383150577545166,2,0.5887382503095473,0.2694653693441582,0.5197531577423037,0.557344078535017,-0.3116272687911987,-0.9363704919815063,-0.161551371216774,-26.8865966796875,-42.18617248535156,13.08700561523438,2
1596231058.525484,124,0,103390.72749925,2.294499487419616,-1.092523321534066,1.205666613355462,-0.1517906934022903,-0.04697684571146965,0.1011998429894447,-0.02938780188560486,0.01572990417480469,-0.01766324043273926,2,0.5892277431294313,0.2657824863070989,0.5206059033756349,0.5577992525637704,-0.3170043528079987,-0.9340774416923523,-0.1643406748771667,-27.12371063232422,-42.00433349609375,13.01834106445312,2
1596231058.553778,125,0,103390.75759725,2.286829537804885,-1.084124210626062,1.202474170363863,-0.1577369123697281,0.1355910003185272,0.05412713065743446,-0.0134337842464447,0.06062036752700806,-0.02660280466079712,2,0.588017461235874,0.2646505210865981,0.5219231088382933,0.5583833516620269,-0.3182469010353088,-0.9329327940940857,-0.1683911383152008,-27.08163452148438,-42.29090881347656,12.74322509765625,2
