loggingTime,loggingSample,identifierForVendor,motionTimestamp_sinceReboot,motionYaw,motionRoll,motionPitch,motionRotationRateX,motionRotationRateY,motionRotationRateZ,motionUserAccelerationX,motionUserAccelerationY,motionUserAccelerationZ,motionAttitudeReferenceFrame,motionQuaternionX,motionQuaternionY,motionQuaternionZ,motionQuaternionW,motionGravityX,motionGravityY,motionGravityZ,motionMagneticFieldX,motionMagneticFieldY,motionMagneticFieldZ,motionMagneticFieldCalibrationAccuracy
1596231030.474112,1,0,103362.6755811667,1.8014904774611,-0.6458875240900789,1.240293139692578,0.2565841674804688,-0.04108915850520134,0.1230010241270065,-0.09425005316734314,0.03835123777389526,-0.07471835613250732,2,0.5446802409131412,0.2715661643497018,0.49033127324373,0.6238195845739143,-0.1953309327363968,-0.9458791613578796,-0.259150505065918,-21.10934448242188,-46.35636901855469,8.671630859375,2
1596231030.502104,2,0,103362.7056791667,1.808072010688267,-0.6528727220536714,1.246885934806103,0.2392795234918594,-0.03937742114067078,-0.2605923414230347,-0.06005570292472839,0.02650719881057739,-0.02675378322601318,2,0.5465857622533103,0.2735577491268526,0.4885185146279697,0.622703774671085,-0.1933436393737793,-0.9479981064796448,-0.2528203129768372,-21.12427520751953,-46.19815826416016,9.052520751953125,2
1596231030.531954,3,0,103362.7357781667,1.803602979362914,-0.6536386484468909,1.260388137388408,0.3176378905773163,-0.2495638132095337,-0.361880749464035,-0.03952422738075256,0.03794753551483154,-0.07774090766906738,2,0.5495964809579712,0.2769473311342131,0.4828856518462226,0.6229490249009715,-0.1857363730669022,-0.9522089958190918,-0.2424877732992172,-20.73567962646484,-46.29997253417969,9.37664794921875,2
1596231030.562125,4,0,103362.7658771667,1.798395277445272,-0.6453338866160179,1.269782069052442,0.1001850962638855,0.6283441185951233,-0.08799216151237488,0.07944521307945251,4.243850708007812e-05,0.1442503929138184,2,0.5498588394611126,0.2814651656865987,0.4807339149971896,0.6223566058628339,-0.1783281713724136,-0.9550362825393677,-0.2368652373552322,-20.03917694091797,-46.31486511230469,9.748626708984375,2
1596231030.595659,5,0,103362.7959761667,1.805741191556752,-0.6464903883736113,1.276340450409018,0.2716153860092163,-0.05834714695811272,-0.1250368803739548,-0.009143412113189697,-0.01300668716430664,-0.07572352886199951,2,0.5501630894590397,0.2854704905835856,0.4807292992133894,0.6202634767748216,-0.1748251914978027,-0.9569602012634277,-0.2316543459892273,-20.07510375976562,-46.25984191894531,9.97064208984375,2
1596231030.622333,6,0,103362.8260751667,1.807236823938466,-0.6476133130443095,1.28297528168306,0.1874617040157318,0.04652930796146393,-0.0604451447725296,0.01556840538978577,0.00642627477645874,-0.01894336938858032,2,0.55128559088375,0.2879056847288439,0.4788850715352836,0.6195674435043313,-0.1712508946657181,-0.958864688873291,-0.2263890206813812,-19.98873138427734,-46.10476684570312,10.24459838867188,2
1596231030.652393,7,0,103362.8561731667,1.817633630496809,-0.6538942176565904,1.287804238848843,0.1247172430157661,0.1935573220252991,-0.03089926391839981,0.06962999701499939,0.03673529624938965,0.1256164312362671,2,0.5520513070606026,0.290557742216731,0.4789078562961642,0.6176269103459366,-0.1698508560657501,-0.9602242708206177,-0.2216311097145081,-19.94134521484375,-46.35207366943359,10.454833984375,2
1596231030.682666,8,0,103362.8862721667,1.825277222712893,-0.6596425662098021,1.293070780683733,0.2436251640319824,-0.1145284622907639,-0.02458049729466438,0.150507390499115,-0.02292883396148682,-0.03256940841674805,2,0.5531295759164185,0.2927829216754131,0.4780771773780214,0.6162532923903477,-0.1680203676223755,-0.9616814851760864,-0.216651663184166,-20.06109619140625,-46.24203491210938,10.71966552734375,2
1596231030.712536,9,0,103362.9163711667,1.845303715031964,-0.6884543420018377,1.29525831643563,0.1759454607963562,-0.5107017755508423,0.1890510618686676,0.1074964702129364,-0.0148770809173584,-0.05889856815338135,2,0.5574070212128576,0.2902568806908332,0.4755756466772186,0.6155293436325102,-0.1728551536798477,-0.9622789621353149,-0.2100967168807983,-20.04367828369141,-46.29116821289062,11.1636962890625,2
1596231030.744102,10,0,103362.9464701667,1.87605699723216,-0.7311367915531658,1.297244745530926,0.2627774178981781,-0.2964748740196228,0.1367617547512054,-0.01472106575965881,0.06327533721923828,0.02114373445510864,2,0.5633660446251387,0.2864707211619442,0.4724562731190391,0.6142788775305275,-0.1803858131170273,-0.9628174901008606,-0.2011064440011978,-20.09935760498047,-46.24123382568359,11.45181274414062,2
1596231030.772837,11,0,103362.976569125,1.917370993775389,-0.7785854127163744,1.304887005970129,0.5750599503517151,-0.3162976801395416,0.0130207035690546,-0.1673152446746826,0.03105342388153076,-0.02931588888168335,2,0.5695756739416825,0.2864320500212481,0.4692709114314,0.6110035205612966,-0.1845486164093018,-0.9648539423942566,-0.1870804578065872,-20.23165893554688,-45.91594696044922,12.34152221679688,2
1596231030.802946,12,0,103363.006668125,1.941535145485094,-0.8093715204827646,1.315961676927563,0.2250431627035141,-0.03372285142540932,-0.1396294683218002,0.01547175645828247,0.007973670959472656,0.004697442054748535,2,0.5745253434553761,0.2880221635592518,0.4643130461259697,0.6094074900442572,-0.1824734956026077,-0.9677050113677979,-0.1739277243614197,-19.98889923095703,-45.85130310058594,12.82351684570312,2
1596231030.832825,13,0,103363.036767125,1.980978514736537,-0.846202242985401,1.320700564346382,0.3763892948627472,0.1252856105566025,0.304251104593277,0.1344293653964996,0.01597923040390015,0.0178142786026001,2,0.5778450291418575,0.2899493448463486,0.4641585836958779,0.6054597127913123,-0.1853181719779968,-0.9688887000083923,-0.1640489995479584,-20.07582092285156,-45.74219512939453,13.33279418945312,2
1596231030.863246,14,0,103363.066866125,2.033660189268115,-0.9022476388470471,1.321399618166255,0.2445862591266632,-0.3323677182197571,0.1468260437250137,-0.02079936861991882,0.02756774425506592,0.08155477046966553,2,0.5832828545251085,0.2885924384157806,0.4635572829246678,0.6013405360375588,-0.1936853677034378,-0.9690614938735962,-0.1529910266399384,-20.39092254638672,-45.74497222900391,13.42327880859375,2
1596231030.893951,15,0,103363.096965125,2.049853042779662,-0.933501791530403,1.321855330399749,-0.03079403005540371,-0.8072366714477539,0.04933388158679008,0.1518200635910034,0.01014947891235352,0.2435181140899658,2,0.588205465789632,0.2841017338830122,0.4591269860404145,0.6020824147479832,-0.1980166882276535,-0.9691739082336426,-0.146601065993309,-20.33546447753906,-45.21435546875,14.29598999023438,2
1596231030.926165,16,0,103363.127063125,2.053405797780381,-0.9644891272869386,1.317904446570326,-0.0153393242508173,-0.825079083442688,0.1912720501422882,0.04062002897262573,-0.0159454345703125,0.04533004760742188,2,0.594524025118693,0.27432304637759,0.4523276824449778,0.6055475157945931,-0.205608069896698,-0.9681929349899292,-0.1425760984420776,-19.9727783203125,-45.26483154296875,14.60183715820312,2
1596231030.953411,17,0,103363.157162125,2.068277957333125,-0.9965153360616075,1.313770646886964,0.1068053692579269,-0.4868252873420715,0.1771448105573654,-0.1239840984344482,0.02192246913909912,-0.2802599668502808,2,0.5994910716242069,0.2675147434752343,0.4486266141641104,0.6064492946153063,-0.2134270370006561,-0.9671503305435181,-0.1380926370620728,-19.98543548583984,-45.1400146484375,14.94808959960938,2
1596231030.984955,18,0,103363.187261125,2.10499184190428,-1.042730396990767,1.313820193296067,0.4555526673793793,-0.1461381912231445,0.1232239976525307,-0.1605749726295471,0.05725955963134766,-0.3577067255973816,2,0.6049439643122605,0.2645985098061427,0.4458081461128139,0.6043887011820377,-0.2195371985435486,-0.9671629071235657,-0.1280608624219894,-19.97439575195312,-45.36113739013672,15.28369140625,2
1596231031.01358,19,0,103363.217360125,2.180267249114642,-1.112086115091604,1.319523515949316,0.7903187274932861,0.3392192423343658,0.1843532472848892,-0.001322895288467407,0.07937383651733398,-0.2332822680473328,2,0.6105049656812453,0.2687680471337878,0.4454751327026266,0.5971595781954242,-0.2229347378015518,-0.9685967564582825,-0.1100948452949524,-20.03990936279297,-44.76422119140625,16.10153198242188,2
1596231031.044656,20,0,103363.247458125,2.27726658555844,-1.193567811824048,1.325038406478351,0.8108725547790527,0.3901711404323578,0.06511758267879486,0.07207244634628296,0.0198206901550293,-0.03296017646789551,2,0.6154536367320733,0.2764218135524331,0.4474191316610096,0.587046975814993,-0.2261862903833389,-0.969953179359436,-0.0896156057715416,-20.38733673095703,-44.14946746826172,16.44757080078125,2
1596231031.074021,21,0,103363.277557125,2.382725340272926,-1.2888725161901,1.33097312568057,0.8183746337890625,0.2073603719472885,0.1839016973972321,0.1219804286956787,0.04546767473220825,0.153996467590332,2,0.6217765142862033,0.2834657427682686,0.4467353048381308,0.5774676742504563,-0.2281544357538223,-0.9713799953460693,-0.06608227640390396,-20.80877685546875,-43.74029541015625,17.91656494140625,2
1596231031.105786,22,0,103363.307656125,2.48587071618024,-1.383281115378845,1.328736224347596,0.7476752400398254,0.1990987211465836,0.2400030642747879,-0.05002874135971069,0.008488774299621582,-0.03383433818817139,2,0.6283168192500811,0.2878808137185913,0.4474525332032477,0.567564166418506,-0.2355022430419922,-0.9708462357521057,-0.04468522220849991,-21.23632049560547,-43.30827331542969,18.94607543945312,2
1596231031.133965,23,0,103363.337755125,2.579146373352138,-1.469460531784123,1.330233912522601,0.7153850197792053,-0.005951952189207077,-0.1092458218336105,0.0191902220249176,0.06193721294403076,-0.01452624797821045,2,0.6338595584613453,0.293549158407432,0.4460897678250008,0.5595132017658245,-0.2370272725820541,-0.9712041616439819,-0.02410190366208553,-21.23345184326172,-42.89550018310547,19.4893798828125,2
1596231031.165697,24,0,103363.367853125,2.666546272582688,-1.557915221158238,1.333645242833935,0.6269513368606567,-0.2342635691165924,0.03686900436878204,0.1508688032627106,0.01432430744171143,0.1207681894302368,2,0.6401135359336801,0.297895270063313,0.4412654504834563,0.5538934939099023,-0.2349154651165009,-0.9720112085342407,-0.003026138292625546,-21.20388793945312,-42.26726531982422,20.89617919921875,2
1596231031.194644,25,0,103363.397952125,2.745707004923516,-1.638829083842833,1.330613589880488,0.7502575516700745,0.2118229120969772,0.06883103400468826,-0.2016932368278503,0.06648439168930054,-0.06693768501281738,2,0.646541728680863,0.3001156629073377,0.4378642579678632,0.5478955542038428,-0.2373309582471848,-0.9712945222854614,0.01617123559117317,-21.02175903320312,-42.04277801513672,21.3780517578125,2
1596231031.226011,26,0,103363.428051125,2.842664282863991,-1.704289409849519,1.32814902101535,0.7836977243423462,1.546048402786255,-0.07428763806819916,-0.2997235059738159,-0.0935060977935791,-0.2250244617462158,2,0.6465519588432065,0.312986279781848,0.4435985677846178,0.5359389605116559,-0.23813596367836,-0.9707052707672119,0.03197969496250153,-21.71619415283203,-41.33907318115234,22.00302124023438,2
1596231031.254356,27,0,103363.458150125,2.952904755794755,-1.760488556292068,1.326676384937004,0.8808634877204895,1.644723057746887,-0.04749137908220291,-0.1951714754104614,-0.01902174949645996,0.1735310554504395,2,0.6416660721240066,0.3332446563246956,0.4549408728001347,0.5198476375023602,-0.2373673468828201,-0.9703503847122192,0.04557469859719276,-22.12950897216797,-40.98169708251953,22.21743774414062,2
1596231031.285603,28,0,103363.488248125,3.047480807317196,-1.792221759907669,1.32376093694345,0.6496423482894897,2.387583255767822,-0.1892038285732269,-0.1618109345436096,-0.06280034780502319,0.2325345277786255,2,0.6333830914888061,0.3545107662666881,0.4696279838565997,0.5025909870383842,-0.2385610193014145,-0.9696416258811951,0.05370404943823814,-23.85546875,-40.47222137451172,21.81637573242188,2
1596231031.314475,29,0,103363.518347125,3.100465799478453,-1.779963081216942,1.328474348628087,0.233041912317276,1.755049705505371,-0.1836162507534027,0.1392958760261536,-0.08677405118942261,0.3901679515838623,2,0.6196963115758661,0.3753525418355272,0.4856482410300991,0.4891144273210186,-0.2347281575202942,-0.9707834124565125,0.04982609674334526,-24.79853057861328,-40.25247955322266,21.4521484375,2
1596231031.346523,30,0,103363.548446125,3.104771920576157,-1.746869334976391,1.326622512185823,-0.1383575946092606,0.6997982263565063,0.2822162210941315,0.6319501399993896,0.07679033279418945,0.3986812829971313,2,0.6111775889538773,0.3842336425975415,0.4972504753735776,0.4812158348910616,-0.2380180656909943,-0.9703373908996582,0.04234707355499268,-25.76681518554688,-40.2025146484375,20.5064697265625,2
1596231031.376883,31,0,103363.578545125,3.07283895010669,-1.717031830026777,1.314257732240377,-0.3248312473297119,-0.7477573156356812,0.5624035596847534,0.3298311233520508,-0.008880496025085449,0.1873784065246582,2,0.6126214509077079,0.3783932230645741,0.5012611870485304,0.4798447506760093,-0.2510267198085785,-0.9672740697860718,0.03697294741868973,-26.18305969238281,-40.16182708740234,19.94528198242188,2
1596231031.405565,32,0,103363.608643125,3.002275425150247,-1.685982255359324,1.29824349990928,-0.697849452495575,-1.673703789710999,0.6475434899330139,0.04471158981323242,0.2017641067504883,0.1907953023910522,2,0.6213280098533593,0.35975101158917,0.4972356928231507,0.4871217303346002,-0.2674078643321991,-0.9630868434906006,0.03093857318162918,-26.42243194580078,-40.00234222412109,20.08734130859375,2
1596231031.435221,33,0,103363.638742125,2.92243314593521,-1.660792054664423,1.283743523166194,-0.7475349307060242,-1.602071642875671,0.453068345785141,0.01334473490715027,-0.02276986837387085,0.2024979591369629,2,0.6319008890776778,0.3367851310791139,0.4887526768296844,0.4983955650667428,-0.2819820642471313,-0.9590824842453003,0.02544591575860977,-26.31141662597656,-39.99383544921875,20.29397583007812,2
1596231031.465321,34,0,103363.668841125,2.821670317217034,-1.602916206537334,1.266147925801861,-1.03317391872406,-1.069873929023743,0.9187433123588562,0.2533825635910034,-0.1274120807647705,0.2382283210754395,2,0.6373210267200424,0.3140674999523132,0.4859950845794995,0.5089130334535013,-0.2998036742210388,-0.9539524912834167,0.00963297113776207,-25.78943634033203,-39.94133758544922,20.27670288085938,2
1596231031.495093,35,0,103363.698940125,2.713630527215769,-1.533531209877242,1.234132713419962,-1.27868115901947,-1.176781892776489,1.140545964241028,0.1881620585918427,-0.07823967933654785,0.313130259513855,2,0.6414420158748224,0.2870513436690055,0.4886986899524006,0.5170372462370116,-0.3301112651824951,-0.9438620805740356,-0.01230733282864094,-26.28838348388672,-40.18675994873047,20.08688354492188,2
1596231031.525889,36,0,103363.729038125,2.602201457883,-1.468392938292674,1.196012957014776,-1.504011511802673,-1.668968200683594,1.19077455997467,0.07950252294540405,-0.3317344188690186,0.2362969517707825,2,0.6450625943960835,0.2553105820983439,0.4908595935121847,0.5270369531477321,-0.3641541004180908,-0.9305869340896606,-0.03742151334881783,-27.10444641113281,-39.99078369140625,19.40048217773438,2
1596231031.555328,37,0,103363.759137125,2.476860782023264,-1.406386425045974,1.146121177247998,-2.173202276229858,-2.117466688156128,1.987577795982361,0.9035459160804749,-1.050544142723083,-0.3301820755004883,2,0.6485590131260678,0.2136658349639955,0.4914469006151825,0.5405535876943957,-0.4064689576625824,-0.91117262840271,-0.06743623316287994,-27.97213745117188,-40.03427886962891,18.48773193359375,2
1596231031.600121,38,0,103363.789236125,2.347361989249485,-1.391093122874764,1.048528551495676,-2.981558561325073,-4.159781932830811,3.61587381362915,2.071043491363525,-1.339568734169006,-0.1522714495658875,2,0.6602000896301948,0.1398373015704796,0.4888153007102155,0.5528482371173031,-0.490814208984375,-0.8666901588439941,-0.08916274458169937,-28.88585662841797,-39.41312408447266,18.14950561523438,2
1596231031.61553,39,0,103363.819335125,2.19880406389089,-1.433188423997366,0.9070076800796077,-3.924609899520874,-6.754064083099365,4.507438182830811,1.419031023979187,-1.280237913131714,0.2397434711456299,2,0.6760596658720301,0.02620072326570816,0.473217527624167,0.5642004986688192,-0.6102816462516785,-0.7876636981964111,-0.08451370149850845,-31.13866424560547,-37.61714935302734,18.71609497070312,2
1596231031.647146,40,0,103363.849434125,2.04846287341544,-1.551137376968252,0.7597950899785878,-3.399474620819092,-8.280682563781738,4.69392204284668,0.8487394452095032,0.1244016885757446,0.8581606149673462,2,0.6930999340518186,-0.1117443225382722,0.4315686527474057,0.5664577064345628,-0.7248373031616211,-0.6887729167938232,-0.01425137557089329,-31.48832702636719,-36.4886474609375,20.02862548828125,2
1596231031.677643,41,0,103363.879532125,1.921289049035527,-1.722865753392929,0.6270985207407794,-2.918743133544922,-7.844154357910156,4.349487781524658,0.5243659615516663,0.6698501706123352,0.8233274221420288,2,0.7066590899784149,-0.2489252895096502,0.3736954854779682,0.546828259253909,-0.8003894090652466,-0.586797833442688,0.1226617395877838,-30.50556182861328,-34.02212524414062,25.14437866210938,2
1596231031.722412,42,0,103363.909631125,1.777003290258048,-1.869059822279249,0.5226237929361451,-3.300638675689697,-6.305563449859619,4.370046615600586,-0.1809648275375366,0.782503068447113,1.055511593818665,2,0.699862089818347,-0.3708235795177788,0.3144864609183945,0.5232412240086406,-0.8282546997070312,-0.4991554021835327,0.2546341419219971,-29.04471588134766,-33.25639343261719,27.27969360351562,2
1596231031.736057,43,0,103363.939730125,1.607212614986787,-1.85239098590412,0.4516052633476251,-4.662705898284912,1.714542150497437,2.560226440429688,-1.278001308441162,0.3538694977760315,0.6557309627532959,2,0.6541880822917295,-0.4439059457471622,0.2973500870781329,0.5353211025999967,-0.8643102049827576,-0.4364104270935059,0.250029057264328,-29.78280639648438,-32.82527923583984,26.75653076171875,2
1596231031.780878,44,0,103363.969828125,1.46042865938991,-1.687960583964684,0.4541590852303047,-3.891995429992676,4.616512298583984,-0.6073532700538635,-0.5709396004676819,0.6359065771102905,0.2551873922348022,2,0.5971265770871195,-0.4426772892092868,0.3065136013015134,0.594580818419456,-0.8924697041511536,-0.4387067854404449,0.1050466597080231,-31.99044799804688,-34.10986328125,22.36053466796875,2
1596231031.796511,45,0,103363.999926,1.320871319605628,-1.480730834003376,0.5027124063974009,-4.368075370788574,4.253241062164307,-2.424773693084717,0.3643675446510315,0.8760875463485718,0.3351932764053345,2,0.5458116741965422,-0.4033381860654103,0.3061437579187495,0.667595713943236,-0.8727273344993591,-0.4818041324615479,-0.07881584763526917,-33.92669677734375,-37.73690795898438,11.83709716796875,2
1596231031.843523,46,0,103364.030025,1.164230528570775,-1.35937141041643,0.5808864377985048,-3.403787612915039,-2.487350225448608,-4.171046257019043,0.8183679580688477,0.9112597703933716,-0.4619036316871643,2,0.5171487012535254,-0.3805797945820883,0.2593465426070259,0.7214262546797876,-0.8173619508743286,-0.5487651824951172,-0.175432488322258,-32.71767425537109,-39.98495483398438,6.503204345703125,2
1596231031.856619,47,0,103364.060124,1.030034762019206,-1.447415464097195,0.6929270202992379,-2.453806638717651,-7.506835460662842,-3.986050128936768,1.219664216041565,0.3373401761054993,-0.438679575920105,2,0.5282242948391347,-0.4166965941675003,0.1514759650694569,0.7241534987621796,-0.7635311484336853,-0.6387919187545776,-0.09468608349561691,-26.05022430419922,-44.70228576660156,4.132537841796875,2
1596231031.8987,48,0,103364.090223,0.9259754055205422,-1.596722209944309,0.7819364502308275,-2.526382923126221,-6.262619018554688,-2.131259679794312,0.5484690070152283,-0.6050107479095459,1.108389258384705,2,0.5336921799098535,-0.4736765661577795,0.04396717286776897,0.6991925453115732,-0.7093121409416199,-0.7046547532081604,0.01839366368949413,-22.04105377197266,-46.32263946533203,5.103515625,2
1596231031.917061,49,0,103364.120321,0.771198107517964,-1.606268017325635,0.8299457501870019,-4.734701156616211,-1.891247510910034,-1.214420199394226,-1.177201867103577,-0.8048926591873169,1.296587944030762,2,0.5070808585725385,-0.5048135293887704,-0.02976509272030359,0.6979588197388243,-0.6744914650917053,-0.7378947734832764,0.02393539249897003,-17.19267272949219,-47.99101257324219,3.15875244140625,2
1596231031.960377,50,0,103364.15042,0.6043768865161443,-1.504803282184649,0.895401014618338,-1.450971126556396,-1.420933365821838,-3.070573329925537,-0.3528162240982056,0.5545149445533752,-0.1719529032707214,2,0.4850540581941216,-0.494072768203108,-0.08657468292327214,0.716323739986884,-0.6238452792167664,-0.7804598808288574,-0.04122932255268097,-15.65676879882812,-48.37553405761719,-0.487762451171875,2
1596231031.977729,51,0,103364.180519,0.6239776070738099,-1.611218442243909,0.9657099578823266,1.641384959220886,-3.446333408355713,-0.6922203302383423,0.6160866022109985,0.3417481780052185,2.220294237136841,2,0.5021673950962708,-0.5092361999287425,-0.1304086976179475,0.6866587901880699,-0.5683690309524536,-0.8224529623985291,0.02298719994723797,-11.13787841796875,-49.46218109130859,-2.131317138671875,2
1596231032.022379,52,0,103364.210618,0.5908718837795367,-1.63296988570745,0.9058921046939434,-0.3588510155677795,0.348932147026062,3.027905225753784,-1.209491729736328,0.03470796346664429,0.6162786483764648,2,0.4774736298960266,-0.5396171122558897,-0.1258179212801532,0.6819108267671621,-0.6157920360565186,-0.7869758605957031,0.03833539038896561,-10.77378082275391,-49.48653411865234,-0.784393310546875,2
1596231032.037125,53,0,103364.240716,0.6676140000427668,-1.625072647709803,0.8847675783816759,1.75839102268219,3.947842121124268,-2.04462742805481,-1.282359004020691,0.3655096888542175,0.1632111072540283,2,0.4931135329457118,-0.5234709224633359,-0.09003823599060176,0.6889924264460393,-0.6325368285179138,-0.7737677693367004,0.03436552733182907,-14.48124694824219,-48.57778167724609,-0.706085205078125,2
1596231032.077684,54,0,103364.270815,0.6794008034548519,-1.550180947641284,0.988491585930565,-0.1534214913845062,1.421624660491943,-3.872214317321777,0.4718220233917236,-0.1447203159332275,-0.1527903079986572,2,0.5247694497092076,-0.4679195521732881,-0.1034419774997216,0.7035397441035329,-0.5498335957527161,-0.835197389125824,-0.01133663486689329,-9.279075622558594,-49.91331481933594,-0.649444580078125,2
1596231032.09728,55,0,103364.300914,0.6950367132463983,-1.577362535864928,1.054618415806881,-0.1676133573055267,-1.796786189079285,-0.1247917860746384,1.907175779342651,-0.1215386390686035,-0.03916668891906738,2,0.5422389157301273,-0.455628528633065,-0.1282282804389093,0.694217077690241,-0.4935494959354401,-0.8697119355201721,0.003240795573219657,-6.552093505859375,-50.07711029052734,-0.123077392578125,2
1596231032.14482,56,0,103364.331013,0.6791726585868028,-1.632883649541515,1.020216136434283,0.244236022233963,-2.405511617660522,1.549697399139404,0.5225304365158081,0.04662626981735229,-0.1835688352584839,2,0.5271124569154391,-0.4882453396856659,-0.1364200909274752,0.6820254044400167,-0.5221740007400513,-0.8522211313247681,0.03246210888028145,-7.136909484863281,-50.18471527099609,-0.31524658203125,2
1596231032.15737,57,0,103364.361111,0.6837118419055648,-1.689018736992332,0.998875063582633,-0.1857628971338272,-0.9985635876655579,-0.2060050666332245,-0.5190439820289612,-0.2821345329284668,0.1847361326217651,2,0.5196759292707547,-0.5117189994492928,-0.1419149597087915,0.6692839183072473,-0.5374709963798523,-0.8408626317977905,0.06383880972862244,-8.385322570800781,-50.31605529785156,0.141326904296875,2
1596231032.20212,58,0,103364.39121,0.6830836762676131,-1.69720198029517,1.012429856316082,0.07399912178516388,0.4564599394798279,-0.3192797601222992,-0.3259657025337219,-0.1266273856163025,0.1253916025161743,2,0.521807310232424,-0.510992167042994,-0.1491714294555162,0.6665974306118949,-0.5255746245384216,-0.848121702671051,0.06679172813892365,-7.956047058105469,-50.17560577392578,0.311798095703125,2
1596231032.217543,59,0,103364.421309,0.6894129682264873,-1.685880365750581,1.018029249206872,0.1256823986768723,0.6154786348342896,-0.2697823047637939,-0.010276198387146,-0.07462239265441895,-0.06735813617706299,2,0.5254344474889145,-0.5040477532183386,-0.1461208679598764,0.6697040487132517,-0.5215717554092407,-0.8510749340057373,0.06029099225997925,-7.770423889160156,-50.07958221435547,0.176544189453125,2
1596231032.262765,60,0,103364.451408,0.7054636683090938,-1.664735343740702,1.031184618761879,0.2889977097511292,1.71944534778595,-0.5142293572425842,0.4326457977294922,-0.2271486520767212,0.1999857425689697,2,0.5337188884588429,-0.4891234598175687,-0.1398647768253159,0.675529740537223,-0.5115379691123962,-0.8579082489013672,0.04819522053003311,-7.16827392578125,-50.304931640625,0.674713134765625,2
1596231032.278029,61,0,103364.481506,0.7086774853505052,-1.623306478228044,1.034589757070149,-0.1106096133589745,0.7505603432655334,0.3665166795253754,0.3839006423950195,-0.2400434017181396,0.04279911518096924,2,0.5380081689333148,-0.4732380082416675,-0.1288862424734508,0.6855519578579908,-0.5101748108863831,-0.8596528172492981,0.02681400440633297,-6.755081176757812,-50.302978515625,0.64599609375,2
1596231032.323019,62,0,103364.511605,0.6954735937314847,-1.601918978528846,1.020793102900423,-0.2777847647666931,0.4381139576435089,0.2954148054122925,-0.08128243684768677,0.1376919150352478,0.1878172159194946,2,0.533166775061287,-0.4731444132008172,-0.12282241832197,0.6904944093639953,-0.5224374532699585,-0.8525228500366211,0.01626489125192165,-7.326240539550781,-50.2659912109375,0.163055419921875,2
1596231032.33794,63,0,103364.541704,0.6844413825504204,-1.569180218393872,1.023783898707735,-0.1096769273281097,1.175021886825562,-0.4261734187602997,-0.2507281303405762,0.07033371925354004,0.2472430467605591,2,0.5332464750717708,-0.4639266072395746,-0.1189698401402305,0.6973283152813973,-0.5201378464698792,-0.8540822863578796,-0.0008405998232774436,-7.594200134277344,-50.01669311523438,-0.024200439453125,2
1596231032.385887,64,0,103364.571803,0.6771732555505322,-1.516635526143069,1.03692226600478,-0.1150607466697693,1.831318140029907,-0.3205153942108154,0.0571015477180481,-0.1370312571525574,0.2045563459396362,2,0.5377406285242075,-0.4439158451681346,-0.1119861509057582,0.70797819602108,-0.5081264972686768,-0.8608421087265015,-0.02754747681319714,-6.594207763671875,-50.13197326660156,-0.5604248046875,2
1596231032.398075,65,0,103364.601901,0.6684008153099034,-1.460302452229876,1.042714155882498,-0.1579342037439346,1.238512516021729,-0.179713562130928,0.2555660009384155,0.02812784910202026,0.1614863872528076,2,0.5402713422161948,-0.4246478140717991,-0.101890683461224,0.7193049464138673,-0.5008053183555603,-0.8637750148773193,-0.05556222051382065,-6.42315673828125,-50.16226196289062,-0.985076904296875,2
1596231032.443039,66,0,103364.632,0.653937290808937,-1.425043135045719,1.047799615371819,-0.2320521771907806,0.4226687848567963,-0.1357004195451736,0.2825279235839844,-0.04748684167861938,0.2110967040061951,2,0.5403031394820333,-0.4144887809673186,-0.09927584354960406,0.7255453234102383,-0.4941827058792114,-0.8663262724876404,-0.07254313677549362,-6.076187133789062,-50.23957824707031,-1.0989990234375,2
1596231032.458261,67,0,103364.662099,0.6550648598181563,-1.405146368662803,1.047934185063471,0.122058779001236,1.368557810783386,0.04211780801415443,0.1067308485507965,0.03191167116165161,0.3727487921714783,2,0.5415286366380493,-0.4069102665145531,-0.09352841579763563,0.7296734531229803,-0.4925266206264496,-0.866393506526947,-0.08234154433012009,-5.879203796386719,-50.16713714599609,-1.492156982421875,2
1596231032.506505,68,0,103364.692198,0.6823104424105344,-1.363899676680464,1.04629043746293,0.9305108785629272,2.976194381713867,0.3449946641921997,-0.2302574813365936,0.3693959712982178,0.4128823280334473,2,0.5481946021825244,-0.384767510803217,-0.07175190725034836,0.7391133385394144,-0.4901055693626404,-0.8655714988708496,-0.1028732806444168,-5.915992736816406,-50.18451690673828,-1.17822265625,2
1596231032.518429,69,0,103364.722296,0.774739398077897,-1.317438429305599,1.042926341200037,1.919446468353271,5.725891590118408,0.3331761062145233,-0.7184087038040161,-0.2630695700645447,0.8782066106796265,2,0.5652306352371969,-0.3426182071393084,-0.0233096385923845,0.7500560299745143,-0.4876150488853455,-0.8638818860054016,-0.1262541860342026,-6.283226013183594,-50.31584930419922,0.57379150390625,2
1596231032.563824,70,0,103364.752395,0.9101910722577093,-1.220358851003534,1.059331202625994,2.857252597808838,7.844917297363281,0.3871906697750092,-0.07458260655403137,-0.02498233318328857,0.4487170577049255,2,0.5892819134376847,-0.2621633240316101,0.05082388103912283,0.7625184360835848,-0.4597079157829285,-0.8720283508300781,-0.1680344343185425,-6.729820251464844,-50.26804351806641,2.094268798828125,2
1596231032.578822,71,0,103364.782494,1.127647718761674,-1.21788294372419,1.059840656456283,3.381666660308838,4.462559223175049,1.9951171875,0.2315784096717834,0.1385853886604309,0.2590407133102417,2,0.6141981692523862,-0.1955794783055784,0.1338654603581282,0.7527214283185697,-0.4588735699653625,-0.872277557849884,-0.1690185517072678,-9.282012939453125,-49.51298522949219,6.75482177734375,2
1596231032.623924,72,0,103364.812593,1.353928690714352,-1.317785478708416,1.027841961396647,3.279862642288208,2.34973669052124,2.093657970428467,0.1874209642410278,0.02113604545593262,-0.08286076784133911,2,0.636959173580383,-0.1720953472372267,0.1967151085442954,0.7252376156732948,-0.5002190470695496,-0.8561859726905823,-0.1293324083089828,-11.86186218261719,-48.91098022460938,9.42486572265625,2
1596231032.638942,73,0,103364.842691,1.551644286544899,-1.416785728336831,0.9859764290137141,2.910077810287476,2.458482027053833,2.079736232757568,-0.4198237061500549,0.3261958360671997,-0.1377992630004883,2,0.6579268380906312,-0.1574464806772555,0.2486888852746761,0.6931788243250346,-0.5455152988433838,-0.8338115215301514,-0.08468576520681381,-16.47570037841797,-46.45206451416016,14.28643798828125,2
1596231032.685725,74,0,103364.87279,1.715754223101984,-1.471144217170273,0.9455488912944502,2.969731092453003,2.852755546569824,1.138699293136597,-0.5191531777381897,0.1880930662155151,-0.1574044227600098,2,0.6727332369065165,-0.1353334620032306,0.2995051995877678,0.662881230636386,-0.5823942422866821,-0.8108183145523071,-0.05822969228029251,-19.06818389892578,-45.10614776611328,15.71627807617188,2
1596231032.69916,75,0,103364.902889,1.85204883308308,-1.494667398598562,0.9303814875945465,2.259734869003296,2.789857387542725,0.5172585844993591,0.08981847763061523,0.003278613090515137,-0.05392605066299438,2,0.6832651643073666,-0.1021081891882354,0.3406955460970498,0.6376906103733541,-0.5957976579666138,-0.8018479347229004,-0.045445267111063,-22.67551422119141,-42.57185363769531,18.347900390625,2
1596231032.743285,76,0,103364.932988,1.961391373234008,-1.498693165095724,0.9203497534645446,2.090045690536499,2.728709936141968,0.4353352785110474,0.296543300151825,0.01289236545562744,-0.1690233945846558,2,0.6880159164126397,-0.06944243009128698,0.3767105391515221,0.6163613583609608,-0.6039689779281616,-0.7958134412765503,-0.04362369701266289,-24.05575561523438,-41.51345062255859,19.12948608398438,2
1596231032.759327,77,0,103364.963086,2.056833644978284,-1.499666113347123,0.9200082911856082,1.737628936767578,2.141302347183228,-0.2139895707368851,0.1460580825805664,-0.09675312042236328,-0.07401895523071289,2,0.6907290197111489,-0.03695613088254768,0.4054491870371865,0.5976108472801406,-0.6042817831039429,-0.7956066727638245,-0.04305533319711685,-26.64774322509766,-39.71944427490234,20.1451416015625,2
1596231032.801549,78,0,103364.9931855,2.133158022520767,-1.506786626969966,0.9396238210562288,1.357179403305054,1.560288786888123,-0.8134963512420654,0.2795252203941345,-0.1560590267181396,0.06012469530105591,2,0.6936106807855786,-0.00559510867383417,0.4197840140051754,0.5853670324620137,-0.5888837575912476,-0.807336151599884,-0.03774583712220192,-27.19371795654297,-39.32352447509766,20.38552856445312,2
1596231032.819587,79,0,103365.0232845,2.18939524991875,-1.507399031105566,0.9704064546728282,1.024429202079773,1.509705662727356,-1.067034244537354,0.331822395324707,-0.06488299369812012,0.05147683620452881,2,0.6938932614045933,0.02480969785669113,0.4269918805420151,0.5792881841192553,-0.5638296604156494,-0.825115442276001,-0.0357932411134243,-27.18540191650391,-38.950927734375,20.77365112304688,2
1596231032.862524,80,0,103365.0533835,2.243493652901966,-1.503158873712928,1.009685486832498,1.08841347694397,1.798988699913025,-1.437384963035583,0.1906444430351257,0.06617140769958496,0.0994102954864502,2,0.6917712040124793,0.05891057312567721,0.4327080990492096,0.575105147987893,-0.5309104323387146,-0.8466645479202271,-0.03596429154276848,-27.04970550537109,-39.21035766601562,20.72811889648438,2
1596231032.879822,81,0,103365.0834815,2.292958895039662,-1.486584455515429,1.061529109896025,0.7506988048553467,2.283181667327881,-1.874476552009583,0.1890180110931396,-0.03880053758621216,0.2643750309944153,2,0.6852909229965225,0.09935978184643557,0.4376183811435146,0.5735802424822938,-0.4858101904392242,-0.8731020092964172,-0.04100796952843666,-26.19035339355469,-39.66215515136719,20.7607421875,2
1596231032.924185,82,0,103365.1135805,2.312873968425664,-1.427010270188366,1.122544216358562,0.4131351411342621,2.884615421295166,-1.982718229293823,0.3152541518211365,-0.04937028884887695,0.1836634874343872,2,0.6692062681631396,0.1453010596073303,0.4456573690568271,0.5765763554666999,-0.4289191067218781,-0.9012060165405273,-0.06210114434361458,-25.77366638183594,-40.06315612792969,20.41665649414062,2
1596231032.939779,83,0,103365.1436795,2.328959189581163,-1.333356413051598,1.183340574227042,0.9602786898612976,4.365679740905762,-1.960758686065674,0.4555503726005554,0.2322759628295898,0.202214241027832,2,0.6447104020505989,0.1997806753701218,0.462866988531219,0.5746220296342872,-0.3672335743904114,-0.925873339176178,-0.08887235820293427,-25.23076629638672,-41.44101715087891,18.3939208984375,2
1596231032.982916,84,0,103365.1737785,2.409169960958905,-1.290636828438089,1.24884884771004,1.464154124259949,2.578335046768188,-1.565697193145752,0.5017818212509155,-0.06286877393722534,0.1949400305747986,2,0.6228496485833186,0.2613665707353509,0.4792648136169735,0.5604028248000861,-0.3040786981582642,-0.9486210346221924,-0.08749166131019592,-24.6220703125,-42.27627563476562,17.13833618164062,2
1596231033.000157,85,0,103365.2038765,2.44146509551391,-1.273402688434781,1.290007610717735,0.398935854434967,0.8379582166671753,-0.8934931755065918,1.020217418670654,-0.7486647963523865,0.1282613277435303,2,0.6120727990425178,0.2911452469563396,0.480967845266714,0.5561218944506975,-0.2649501860141754,-0.960837185382843,-0.0812026709318161,-24.26119232177734,-42.68885040283203,17.04751586914062,2
1596231033.042341,86,0,103365.2339755,2.458858539278542,-1.306152807280938,1.302424947803729,0.1215611100196838,-1.86384391784668,0.1872641891241074,0.5690259337425232,-0.3579527735710144,-0.387730598449707,2,0.6165604054734138,0.2918470299909727,0.4719283610803806,0.5585358995045523,-0.2559306025505066,-0.9642040133476257,-0.06935715675354004,-23.44316864013672,-42.78517913818359,17.546875,2
1596231033.061147,87,0,103365.2640745,2.490387654271577,-1.398155254488513,1.295791813523642,0.2715228796005249,-1.804475426673889,0.1531871259212494,0.07184454798698425,-0.004670143127441406,0.05082499980926514,2,0.6339160249094153,0.2735438134113698,0.4540270725034108,0.5631908252724145,-0.2675153315067291,-0.9624239802360535,-0.04664850980043411,-22.72718811035156,-42.57759857177734,18.29440307617188,2
1596231033.102573,88,0,103365.2941735,2.530630906091823,-1.466153810311219,1.302257161038998,0.4468472003936768,-0.02021536789834499,-0.3828199803829193,-0.1732577085494995,-0.2094842791557312,0.1640440225601196,2,0.6430641677026087,0.2694655916909117,0.441737053177984,0.5645576926359948,-0.2638728022575378,-0.9641594886779785,-0.02771354280412197,-21.6590576171875,-42.27899169921875,20.011962890625,2
1596231033.120452,89,0,103365.3242715,2.563127844884264,-1.492121794306605,1.308340721058853,0.2437177151441574,-0.02537077106535435,0.02866780385375023,-0.3285301029682159,0.1873366832733154,-0.04442918300628662,2,0.6437053559853991,0.2746775161066253,0.4407541510772588,0.5620780214389387,-0.2586512267589569,-0.9657557606697083,-0.02039135433733463,-21.67908477783203,-42.12272644042969,20.47418212890625,2
1596231033.156406,90,0,103365.3543705,2.601762480298741,-1.539603847702772,1.316761418706099,0.3718325197696686,-0.3919020593166351,-0.6809842586517334,-0.009266465902328491,0.1155425310134888,0.1592739820480347,2,0.6477338363410549,0.2766260733981074,0.4338529187127115,0.5618636741693318,-0.2511901557445526,-0.9679062962532043,-0.00783778540790081,-21.04032897949219,-41.95833587646484,21.00918579101562,2
1596231033.18071,91,0,103365.3844695,2.63223528772215,-1.571521214347375,1.339358858698846,0.05451425164937973,0.03135878592729568,-0.4489210844039917,0.1936865150928497,-0.4023728966712952,0.1214654445648193,2,0.6472391267298824,0.2848941019537138,0.4256895406960595,0.5645400360976623,-0.2293775975704193,-0.9733376502990723,0.0001662729919189587,-20.52050018310547,-42.31163787841797,21.37884521484375,2
1596231033.22198,92,0,103365.4145685,2.633324090910675,-1.57964207703773,1.339594346929244,0.09276430308818817,-0.4538719356060028,0.138589009642601,-0.1546692550182343,0.07772350311279297,0.01365220546722412,2,0.6487743950831193,0.2830287346501035,0.4232994247681842,0.565512350474947,-0.2291391640901566,-0.9733916521072388,0.002026960719376802,-19.87132263183594,-42.50199890136719,21.42156982421875,2
1596231033.240891,93,0,103365.4446665,2.651534995117034,-1.602799209846383,1.349256923325178,0.1294990628957748,0.1655116975307465,-0.7842720746994019,-0.1950514018535614,0.136455774307251,0.002460598945617676,2,0.649629049081384,0.2854777277573108,0.4182316557148519,0.5670687796706652,-0.2196198552846909,-0.9755603671073914,0.007030868902802467,-19.84234619140625,-42.44388580322266,21.51535034179688,2
1596231033.28019,94,0,103365.4747655,2.676298683945152,-1.617657145485186,1.368921652034862,0.06663718074560165,0.3302367925643921,-0.3262192606925964,0.1408019363880157,-0.1074018478393555,0.03970861434936523,2,0.6460530659784194,0.2954855074167879,0.414983340177425,0.5684125101304387,-0.2002872079610825,-0.9796923995018005,0.009392498061060905,-18.86255645751953,-42.86405944824219,21.6357421875,2
1596231033.301077,95,0,103365.5048645,2.6727633016504,-1.608867577066001,1.371883487543471,-0.08100199699401855,-0.0433269739151001,-0.008246175944805145,0.2208833992481232,-0.02219414710998535,0.07473254203796387,2,0.6442767604818219,0.2977718348319274,0.4159911064104632,0.568498787315165,-0.197460949420929,-0.9802820086479187,0.007521219551563263,-18.86619567871094,-42.87320709228516,21.53558349609375,2
1596231033.343801,96,0,103365.5349635,2.669026750240811,-1.611434574547064,1.373501083955866,0.1299872100353241,-0.2983555495738983,-0.1055303886532784,0.076740562915802,0.125985860824585,-0.01359093189239502,2,0.645106071490708,0.2963443962647104,0.413650088005763,0.5700105810909845,-0.1958574801683426,-0.9806003570556641,0.007963689044117928,-18.80259704589844,-42.79937744140625,21.72882080078125,2
1596231033.361207,97,0,103365.5650615,2.688989927040188,-1.63778914857803,1.377010552778963,-0.04746869951486588,-0.01095043867826462,-0.05591362342238426,0.06182184815406799,-0.02513235807418823,-0.006288766860961914,2,0.6470006151451317,0.2963713775241011,0.4098577143535038,0.5705883538479597,-0.1921442747116089,-0.9812822341918945,0.01289157848805189,-18.38499450683594,-42.74382019042969,21.7957763671875,2
1596231033.403388,98,0,103365.5951605,2.679054814215552,-1.626051856530468,1.37258128507232,-0.03111164458096027,0.1296044588088989,0.3060052990913391,0.1639550924301147,-0.04518735408782959,0.02294683456420898,2,0.6467889896247703,0.2951300083113552,0.412042061535229,0.5698981356911641,-0.19662044942379,-0.9804196357727051,0.01087543740868568,-18.25569152832031,-43.01193237304688,22.01174926757812,2
1596231033.421379,99,0,103365.6252595,2.664432465051727,-1.608581891362247,1.363032348323328,-0.08556956052780151,0.07644510269165039,0.2768343687057495,0.05284988880157471,0.05015122890472412,0.09491991996765137,2,0.6468468400463956,0.2923787327646695,0.4161802869994101,0.5682412086168169,-0.2061265110969543,-0.9784945845603943,0.007792315911501646,-18.80255889892578,-42.74826812744141,21.77700805664062,2
1596231033.457846,100,0,103365.6553585,2.645915940937325,-1.587519700328719,1.35702573151525,-0.2018119543790817,0.121395654976368,0.2162906974554062,-0.04474449157714844,-0.06394648551940918,0.01774168014526367,2,0.646066464929445,0.2904684970817057,0.4194108750848539,0.5677331148479844,-0.2121174335479736,-0.9772379398345947,0.003547649830579758,-19.05247497558594,-42.67623138427734,21.62991333007812,2
1596231033.482069,101,0,103365.6854565,2.623478782737282,-1.556988356829826,1.348816144492846,-0.1132898926734924,0.4235400557518005,0.2578012049198151,-0.03622746467590332,0.05676698684692383,-0.03539383411407471,2,0.6440645469278474,0.2892419489856214,0.4252232960784199,0.5663085909057761,-0.2201420962810516,-0.9754633903503418,-0.003039908595383167,-19.54533386230469,-42.55040740966797,21.17630004882812,2
1596231033.523063,102,0,103365.7155555,2.600771226980322,-1.525762612315778,1.344307961708169,-0.2598241865634918,0.1459520310163498,0.06576179713010788,-0.02659457921981812,-0.008442878723144531,0.08204841613769531,2,0.641285865695843,0.2893057183779354,0.4301254942555189,0.5657269810328711,-0.2243306934833527,-0.9744609594345093,-0.01010927930474281,-20.03150939941406,-42.65790557861328,20.74948120117188,2
1596231033.544893,103,0,103365.7456545,2.553609836477867,-1.477857135590238,1.342058789843646,-0.3367511034011841,-0.06816819310188293,0.01886128261685371,0.01072296500205994,-0.0732421875,-0.04799520969390869,2,0.6380262119031626,0.2870553919880002,0.4327319926695102,0.568563888997797,-0.22577004134655,-0.9739534258842468,-0.02104350924491882,-20.32467651367188,-42.96646118164062,20.41741943359375,2
1596231033.581113,104,0,103365.7757535,2.522342999515946,-1.444603225212826,1.340007206362623,-0.2466461956501007,0.3546026647090912,0.0746103897690773,0.01111888885498047,0.1261435151100159,-0.0178331732749939,2,0.6355185584683083,0.2858693488388268,0.4350313713680319,0.5702130258616089,-0.226928174495697,-0.9734861850738525,-0.02878975495696068,-20.06306457519531,-42.95662689208984,20.13900756835938,2
1596231033.602188,105,0,103365.8058515,2.496003877754765,-1.409269142259069,1.338513747477996,-0.1802214086055756,0.2917430698871613,-0.09898702800273895,-0.2086485028266907,-0.01182281970977783,0.0362282395362854,2,0.6317195911827587,0.2870875885035886,0.4391654161666934,0.5706531914600497,-0.2272038906812668,-0.973143458366394,-0.03702215105295181,-20.56782531738281,-43.15413665771484,19.497314453125,2
1596231033.641613,106,0,103365.8359505,2.463652438675958,-1.359550468541572,1.348435789310435,-0.1404306143522263,0.3224824368953705,-0.5519217848777771,0.3912059366703033,0.1446500420570374,0.000331878662109375,2,0.6245724160353441,0.2945993842249967,0.442484186440996,0.572126174346969,-0.2156307995319366,-0.9753795862197876,-0.04624100029468536,-20.59038543701172,-43.23922729492188,19.18450927734375,2
1596231033.662292,107,0,103365.8660495,2.432585795697165,-1.336739675869076,1.356091492614449,-0.3146959543228149,-0.2451437562704086,0.1049453914165497,0.01123470067977905,-0.174742579460144,0.1088191270828247,2,0.6235087320389255,0.294159528220175,0.4382855349021914,0.5767261589256882,-0.2072507292032242,-0.9770393371582031,-0.04941406473517418,-19.90634155273438,-43.58971405029297,18.85113525390625,2
1596231033.704296,108,0,103365.8961485,2.407108523619557,-1.313573232865719,1.348124289678038,-0.1090580224990845,0.1315994560718536,0.2107633650302887,-0.1137051284313202,0.0544927716255188,0.02246236801147461,2,0.6227088740029624,0.2900753143627749,0.4406626118324082,0.5778463960127896,-0.2135710865259171,-0.9753108620643616,-0.05617994070053101,-19.97513580322266,-43.65724945068359,18.6614990234375,2
1596231033.722422,109,0,103365.9262465,2.381531560088025,-1.279880996821101,1.342007166905204,-0.3016689419746399,0.5170683860778809,0.1639702022075653,0.002607971429824829,-0.04479539394378662,0.007760524749755859,2,0.6193253022832594,0.2896721374087505,0.4456762067296184,0.5778399203740419,-0.2172688543796539,-0.9739417433738708,-0.06505244225263596,-20.30886840820312,-43.60512542724609,18.2989501953125,2
1596231033.759321,110,0,103365.9563455,2.363045406420111,-1.245601046719688,1.331813404621128,-0.1915966868400574,0.4419592916965485,0.369136244058609,0.05590292811393738,0.02576160430908203,-0.08875530958175659,2,0.6148100261388095,0.2901621902635961,0.4541713096028416,0.5757978241100179,-0.2243086397647858,-0.9715792536735535,-0.07562907040119171,-20.59092712402344,-43.85678863525391,17.89089965820312,2
1596231033.782644,111,0,103365.986444875,2.358486915322531,-1.229490245518332,1.323133145563784,-0.0504138208925724,0.3812218904495239,0.08314294368028641,-0.007107198238372803,-0.002100169658660889,-0.04281413555145264,2,0.6121615007666198,0.2902274218687955,0.4605722073255575,0.5734977978916873,-0.2309995740652084,-0.9694879055023193,-0.08205267786979675,-21.49619293212891,-43.56890106201172,17.26187133789062,2
1596231033.823662,112,0,103366.016543875,2.342110831616398,-1.206911948968631,1.320041329677027,-0.09724606573581696,0.2196916490793228,0.1042361781001091,-0.02199891209602356,0.06185400485992432,-0.06643456220626831,2,0.6094368982142149,0.2905683633972069,0.4637584689178421,0.5736592908149593,-0.2318885624408722,-0.9687253832817078,-0.08831338584423065,-21.71553802490234,-43.53857421875,17.06033325195312,2
1596231033.843926,113,0,103366.046641875,2.350925534615258,-1.209701273050177,1.317032892695097,-0.02047532051801682,0.1566957086324692,0.142426073551178,0.06788137555122375,0.01232564449310303,0.01657921075820923,2,0.6089069231391454,0.2913496401803983,0.4663935367229332,0.5716861388705541,-0.2348594069480896,-0.9679744839668274,-0.08869548887014389,-22.07125091552734,-43.43850708007812,16.87554931640625,2
1596231033.880684,114,0,103366.076740875,2.348028401846092,-1.206313368238125,1.310862430186103,-0.06005324050784111,0.01402795128524303,0.1222864091396332,-0.02245992422103882,0.02895593643188477,0.01800030469894409,2,0.6087470644675375,0.2891679180093373,0.4685628699059253,0.5711898351685021,-0.2401329874992371,-0.9664069414138794,-0.09161785244941711,-22.3013916015625,-43.50698852539062,16.6619873046875,2
1596231033.903012,115,0,103366.106839875,2.344128248580417,-1.199273239140884,1.3123106706807,0.01759277284145355,0.2183362990617752,-0.1948778182268143,-0.03115576505661011,0.05901044607162476,-0.03805387020111084,2,0.6076148898651705,0.290525563895057,0.4691285454351687,0.5712421794151745,-0.2381780594587326,-0.9667781591415405,-0.09279808402061462,-22.263916015625,-43.41014862060547,16.66482543945312,2
1596231033.944035,116,0,103366.136938875,2.342271576207452,-1.189171081939886,1.318591306563237,0.06134425103664398,0.2257403135299683,-0.1679441779851913,0.02179533243179321,0.02517271041870117,-0.02883493900299072,2,0.6053200890107775,0.2951600523142395,0.4696560107132091,0.5708691674866657,-0.2315888851881027,-0.9683645367622375,-0.09293626993894577,-22.01969909667969,-43.66303253173828,16.4404296875,2
1596231033.96324,117,0,103366.167036875,2.33796557415873,-1.183301430875685,1.321682324036468,-0.02292066253721714,-0.08413198590278625,-0.07722725719213486,0.03359481692314148,-0.02245080471038818,0.05246436595916748,2,0.6044866756616279,0.2966725159718981,0.4692120267521961,0.5713332017251743,-0.2282671183347702,-0.9691312313079834,-0.09316255152225494,-22.17724609375,-43.49254608154297,16.55392456054688,2
1596231034.001892,118,0,103366.197135875,2.330040190702221,-1.180555729436439,1.323003571621521,-0.01367486454546452,-0.2273762822151184,-0.03876195102930069,0.03568872809410095,-0.0029715895652771,-0.01395350694656372,2,0.604979480988185,0.295548666341045,0.4673509810785829,0.5729171365171957,-0.2268257141113281,-0.9694561362266541,-0.09330162405967712,-21.71839141845703,-43.82984924316406,16.5745849609375,2
1596231034.023462,119,0,103366.227234875,2.339836065751647,-1.199787827274184,1.322296119943038,-0.00500721950083971,-0.3637176752090454,0.1039749309420586,0.01458418369293213,0.002650618553161621,-0.02419912815093994,2,0.608040686842893,0.2927474477590165,0.4645528618755536,0.5733901302747265,-0.2292170822620392,-0.9692823886871338,-0.0891709104180336,-21.79051208496094,-43.82797241210938,16.44839477539062,2
1596231034.05981,120,0,103366.257333875,2.335960413209648,-1.206756115960447,1.320515306395499,-0.03195981681346893,-0.3196229934692383,-0.03883536532521248,-0.04033088684082031,0.01354217529296875,0.03037506341934204,2,0.6102761378685501,0.2889117181855345,0.4618880907434125,0.575111044430499,-0.2314459234476089,-0.9688428640365601,-0.0881861075758934,-21.56049346923828,-43.82833862304688,16.69601440429688,2
1596231034.083674,121,0,103366.287431875,2.326662611091128,-1.202326991258465,1.323373830195578,-0.08608027547597885,0.06661199033260345,-0.1408780515193939,-0.01725736260414124,0.02370142936706543,-0.01526826620101929,2,0.6105073071448451,0.2884002358746649,0.459645323095231,0.5769163117407881,-0.2284680604934692,-0.969546914100647,-0.0882122665643692,-21.3272705078125,-43.65155029296875,16.96768188476562,2
1596231034.121764,122,0,103366.317530875,2.312677164027512,-1.182297325855706,1.323912108342636,-0.03021112456917763,0.2645971477031708,0.0381050743162632,-0.03229522705078125,-0.01357942819595337,-0.04331839084625244,2,0.6079022862284955,0.2901180127380092,0.4615377708880227,0.5772948614644448,-0.226172462105751,-0.9696785807609558,-0.09257269650697708,-21.09750366210938,-43.92117309570312,16.645751953125,2
1596231034.146788,123,0,103366.347629875,2.315737250616151,-1.181876082710576,1.321405021794082,-0.05565271899104118,-0.0693683996796608,0.1264362335205078,-0.007013976573944092,0.01788514852523804,0.002192318439483643,2,0.6074234876904379,0.2902445761594441,0.4633553175626489,0.5762784238933204,-0.2283824384212494,-0.969062864780426,-0.09358958154916763,-21.35565185546875,-43.82498931884766,16.59774780273438,2
1596231034.180527,124,0,103366.377728875,2.314749244725438,-1.179797375001879,1.316946430524156,-0.05296958982944489,0.1968361884355545,0.1263038516044617,0.05211830139160156,0.002889633178710938,0.01210838556289673,2,0.6071929391085045,0.2888976343589138,0.4651350202802572,0.5757642299173777,-0.2321795523166656,-0.9679527878761292,-0.09570978581905365,-21.5654296875,-43.78063201904297,16.50186157226562,2
1596231034.204174,125,0,103366.407826875,2.309075083806588,-1.167975088887132,1.31215407486854,-0.1383902132511139,0.1103206723928452,0.1293769031763077,-0.002979665994644165,-0.001347541809082031,0.01246941089630127,2,0.6053580461244926,0.2888062483099608,0.4686254309858661,0.5749111927859086,-0.2352964580059052,-0.9667381644248962,-0.1002651751041412,-21.70735931396484,-43.72248840332031,16.41177368164062,2
1596231034.243251,126,0,103366.437925875,2.299175917109944,-1.160444798099338,1.306490573530699,-0.1769489943981171,-0.203866720199585,0.1473831832408905,0.07187655568122864,-0.01952499151229858,0.02080953121185303,2,0.6051165777505216,0.2858765290398099,0.4698753655526203,0.5756092680214954,-0.2395523935556412,-0.9652740955352783,-0.1042170748114586,-22.09395599365234,-43.81569671630859,16.0069580078125,2
1596231034.2643,127,0,103366.468024875,2.287116037937037,-1.155005497553426,1.301314097857851,-0.1186238080263138,-0.1875516772270203,0.0596468523144722,0.008637517690658569,0.05147892236709595,0.02003812789916992,2,0.6056247328141876,0.2818707442001038,0.469707194534566,0.5771853444493915,-0.243549257516861,-0.963908851146698,-0.1075351312756538,-22.09495544433594,-43.86547088623047,16.05126953125,2
1596231034.303284,128,0,103366.498122875,2.279259738933685,-1.153148138894512,1.300727528117661,-0.07586298882961273,-0.1557869911193848,-0.04386082291603088,-0.04977265000343323,0.03210997581481934,0.02187293767929077,2,0.6062991248805247,0.2798090468949322,0.4681879049282506,0.5787127934267275,-0.2438656836748123,-0.9637525677680969,-0.1082165390253067,-22.34329986572266,-44.02671813964844,16.12286376953125,2
1596231034.32439,129,0,103366.528221875,2.270488519392034,-1.147307271701794,1.302000777723608,-0.01602713018655777,0.008475086651742458,-0.07267843186855316,0.01773831248283386,0.01160991191864014,0.008125126361846924,2,0.6061477086356565,0.2793161969511498,0.4670081392088195,0.5800612436096282,-0.2421108186244965,-0.9640914797782898,-0.1091348379850388,-22.30008697509766,-43.72592926025391,16.04217529296875,2
1596231034.359651,130,0,103366.558320875,2.267218819293729,-1.144246030047647,1.304423608329082,-0.004051658324897289,-0.04969321191310883,-0.1095447763800621,-0.03325074911117554,0.05199348926544189,-0.005852460861206055,2,0.6058719883988012,0.2801156941101966,0.466206645255541,0.5806081824371578,-0.239648163318634,-0.9647320508956909,-0.1089086607098579,-21.95592498779297,-43.81971740722656,15.90158081054688,2
1596231034.384687,131,0,103366.588419875,2.262038085805322,-1.142741732217452,1.306714095225124,-0.03976300731301308,-0.1621682345867157,-0.0336773544549942,0.03815221786499023,-0.04160577058792114,-0.001671791076660156,2,0.6062312819675533,0.2798355209426351,0.4644182131692011,0.5818002651834348,-0.2374729365110397,-0.9653324484825134,-0.1083514243364334,-21.63197326660156,-43.93524932861328,15.781005859375,2
1596231034.420935,132,0,103366.618517875,2.255629701953213,-1.140247677673819,1.304847307704061,-0.07320792973041534,-0.08874982595443726,0.07010389864444733,0.01744207739830017,0.00254523754119873,-0.003467679023742676,2,0.6065565062173284,0.2779238203309117,0.4639109510899864,0.582781401680448,-0.2388387471437454,-0.9648435115814209,-0.1096951067447662,-21.64278411865234,-44.02371215820312,15.93896484375,2
1596231034.44488,133,0,103366.648616875,2.252574337504878,-1.139421470768116,1.302850985579719,-0.03562352806329727,-0.01490729488432407,-0.00274180993437767,-0.05538463592529297,0.03724336624145508,0.02139890193939209,2,0.6067966388157642,0.2764939949252854,0.4639155618028,0.5832078858673377,-0.2404978573322296,-0.9643169045448303,-0.1106978207826614,-21.782470703125,-43.86100006103516,15.9486083984375,2
1596231034.480363,134,0,103366.678715875,2.251972449898204,-1.13495705041824,1.304065477419807,0.1259686499834061,0.2331954687833786,-0.03185903280973434,-0.02376124262809753,0.02156215906143188,-0.04124730825424194,2,0.6058395955569712,0.2780654161055355,0.4647016671924668,0.5828298531964793,-0.2389396876096725,-0.9646377563476562,-0.1112760156393051,-21.83998107910156,-43.85462188720703,15.82418823242188,2
1596231034.505117,135,0,103366.708814875,2.26243799081624,-1.140312428229826,1.307686603944793,0.02575624361634254,0.1002301424741745,-0.1697065085172653,-0.06138423085212708,0.03576815128326416,0.0764431357383728,2,0.6056044907396505,0.2810249768374991,0.4649567430415948,0.5814495701108227,-0.2363560795783997,-0.9655858278274536,-0.1085363253951073,-21.73639678955078,-43.96034240722656,15.95309448242188,2
1596231034.543576,136,0,103366.738912875,2.253952245210352,-1.127461974884466,1.312252996314321,0.008313319645822048,0.1629998236894608,-0.1049080938100815,0.02522799372673035,-0.01360523700714111,-0.05115962028503418,2,0.6037933503933218,0.283897223842748,0.4648974401114892,0.5819849195301621,-0.2309561669826508,-0.966763436794281,-0.109671913087368,-21.53859710693359,-44.01895141601562,15.928955078125,2
1596231034.565254,137,0,103366.769011875,2.246725892388114,-1.116249192466603,1.313230920003949,-0.06117302551865578,0.06962918490171432,-0.02449863031506538,0.04549002647399902,0.003645837306976318,-0.01055526733398438,2,0.6022107850230372,0.2853461061790137,0.4658582517399606,0.5821477638525345,-0.228862538933754,-0.9670130014419556,-0.1118395403027534,-21.28620910644531,-43.89003753662109,15.7274169921875,2
1596231034.600914,138,0,103366.799110875,2.242904197980292,-1.113055513607542,1.312825590389205,-0.04100174456834793,-0.03889977931976318,-0.01593451574444771,0.05349388718605042,0.008912444114685059,0.007770538330078125,2,0.6020116986391516,0.2849744138743737,0.4658382595906615,0.5825515549277496,-0.2288555949926376,-0.966909646987915,-0.1127429977059364,-21.45412445068359,-44.12600708007812,15.6805419921875,2
1596231034.627712,139,0,103366.829209875,2.237799686872628,-1.106032214666046,1.312875188604591,-0.01358006149530411,0.1661489903926849,-0.003992812242358923,0.03628459572792053,0.01760745048522949,-0.04306882619857788,2,0.6011028645084775,0.2855036201531034,0.4664475959054661,0.5827433301050104,-0.2280153185129166,-0.9669223427772522,-0.1143260598182678,-21.519775390625,-44.18037414550781,15.80966186523438,2
1596231034.661164,140,0,103366.859307875,2.235321916984114,-1.099484052684249,1.311876233452847,-0.05912793427705765,0.0534791387617588,0.02879797853529453,-0.00283697247505188,0.006407856941223145,-0.008199334144592285,2,0.5999234722014561,0.2862937662095106,0.4680163526353143,0.5823131961547763,-0.2281227111816406,-0.9666670560836792,-0.1162554174661636,-21.65740203857422,-44.15324401855469,15.65536499023438,2
1596231034.685777,141,0,103366.889406875,2.231142607010047,-1.095808828632511,1.31046796382815,-0.0421694740653038,-0.02514666132628918,0.0427345335483551,0.04243478178977966,0.02067476511001587,-0.002401113510131836,2,0.5996529601012434,0.2855846708622939,0.4683581299458681,0.5826651013393074,-0.2289042323827744,-0.9663054943084717,-0.117715448141098,-21.77945709228516,-44.00769805908203,15.4210205078125,2
1596231034.723402,142,0,103366.919505875,2.231846461976048,-1.096719424566409,1.309410695025642,0.01245549507439137,-0.02141980826854706,0.02327575720846653,0.02423843741416931,0.02041387557983398,-0.01414883136749268,2,0.5997593062943616,0.2851354368781741,0.4686328258679431,0.5825546791304116,-0.2299198359251022,-0.9660328030586243,-0.1179731115698814,-21.59818267822266,-43.99250793457031,15.25640869140625,2
1596231034.74591,143,0,103366.949604875,2.228310988477688,-1.097097916782059,1.308791977457689,-0.05933134630322456,-0.2448622137308121,-0.01199887692928314,0.003476411104202271,-5.793571472167969e-05,0.02974092960357666,2,0.6003466857145094,0.2837328922303043,0.4676896442470374,0.5833919832176215,-0.2304968684911728,-0.9658727645874023,-0.1181590035557747,-22.02233123779297,-44.32456207275391,15.681640625,2
1596231034.782741,144,0,103366.9797024167,2.222708848049556,-1.100511259349229,1.309083711851473,-0.01385782845318317,-0.2544030249118805,-0.04720553010702133,-0.04910564422607422,0.008456945419311523,0.003101468086242676,2,0.6019357556279337,0.2811610964986641,0.4649320864807752,0.5852008657639794,-0.2306470572948456,-0.9659482836723328,-0.1172435656189919,-21.69632720947266,-44.03834533691406,15.63052368164062,2
1596231034.806018,145,0,103367.0098014167,2.218032150229883,-1.100246492294691,1.310912183406047,-0.0009415671229362488,-0.04554048925638199,-0.07048754394054413,-0.02396994829177856,0.03559219837188721,0.01048409938812256,2,0.6025449164725638,0.2805135756632661,0.4630481130500312,0.5863771919904371,-0.2290410548448563,-0.9664197564125061,-0.1165035143494606,-21.43212890625,-44.22724914550781,15.67019653320312,2
1596231034.844027,146,0,103367.0399004167,2.216418189114577,-1.097793093444353,1.311680026458154,-0.02324136719107628,0.07318910211324692,0.01040127500891685,0.02044951915740967,-0.009404420852661133,0.01600527763366699,2,0.6022097631661418,0.2810336221060049,0.4630642899928337,0.5864596994244342,-0.2280938923358917,-0.9666168093681335,-0.1167270094156265,-21.56720733642578,-44.47982025146484,15.57223510742188,2
1596231034.866244,147,0,103367.0699994167,2.218516889736219,-1.099178017333832,1.311704862853927,0.07774671912193298,-0.003210992552340031,-0.008636152371764183,-0.007255077362060547,-0.001142740249633789,-0.04261457920074463,2,0.6022356399725418,0.2812685861830245,0.4632547923552456,0.5861701453455431,-0.2282346040010452,-0.9666231274604797,-0.1164004355669022,-21.49800109863281,-44.18927764892578,15.60858154296875,2
1596231034.901215,148,0,103367.1000974167,2.226894126353275,-1.111233579178767,1.312055556581358,0.08566388487815857,-0.1568706780672073,0.03978328034281731,0.07355451583862305,0.03196847438812256,-0.01573443412780762,2,0.6038499917943254,0.2803928370550161,0.4619605384757779,0.5859502301809936,-0.229317232966423,-0.9667129516601562,-0.1134900897741318,-21.35957336425781,-44.19898986816406,15.730224609375,2
1596231034.926997,149,0,103367.1301964167,2.233960629377751,-1.120455764099899,1.310265939131239,-0.08443017303943634,-0.02261728420853615,0.1090900078415871,0.05354058742523193,-0.009009599685668945,0.03221189975738525,2,0.6049858759544897,0.2791600835303105,0.4618239206223287,0.5854747271805389,-0.2319115549325943,-0.9662535190582275,-0.1121234744787216,-21.63800048828125,-44.31084442138672,15.79244995117188,2
1596231034.959955,150,0,103367.1602954167,2.217111139273828,-1.100664592217027,1.305232183376117,-0.2359429150819778,0.2094273865222931,0.04490107297897339,-0.06206831336021423,0.02372109889984131,0.02984327077865601,2,0.6027227851645967,0.2779907320348101,0.4644961608174798,0.5862507231961633,-0.2339802980422974,-0.96494460105896,-0.1188927963376045,-21.77279663085938,-44.19523620605469,15.6607666015625,2
