loggingTime,loggingSample,identifierForVendor,motionTimestamp_sinceReboot,motionYaw,motionRoll,motionPitch,motionRotationRateX,motionRotationRateY,motionRotationRateZ,motionUserAccelerationX,motionUserAccelerationY,motionUserAccelerationZ,motionAttitudeReferenceFrame,motionQuaternionX,motionQuaternionY,motionQuaternionZ,motionQuaternionW,motionGravityX,motionGravityY,motionGravityZ,motionMagneticFieldX,motionMagneticFieldY,motionMagneticFieldZ,motionMagneticFieldCalibrationAccuracy
1596230854.038405,1,0,103186.2301011667,-1.04070903825731,0.8312067574774543,1.226215597878252,-0.08180756866931915,0.2236663848161697,-0.1396841108798981,-0.03223168849945068,0.02765905857086182,-0.03831619024276733,2,0.620926643806191,0.02476687245711592,-0.1704473351651682,0.7647119593505601,0.2495496273040771,-0.9412171840667725,-0.2276734113693237,-5.654296875,-50.01012420654297,6.25396728515625,2
1596230854.069767,2,0,103186.2602001667,-1.050109942645754,0.8406994617305864,1.226057326057469,0.07153197377920151,0.01009910181164742,0.01938259601593018,0.05455717444419861,0.02868831157684326,0.009177327156066895,2,0.6218134856522812,0.02551910617063752,-0.1711339773153333,0.7638126896782751,0.2518104612827301,-0.9411637187004089,-0.225393533706665,-5.693702697753906,-49.98902893066406,6.235321044921875,2
1596230854.097551,3,0,103186.2902991667,-1.046998655217759,0.8392956742553404,1.229607986613692,0.06847743690013885,0.05741259455680847,0.1428678929805756,-0.01442191004753113,-0.007698893547058105,-0.01883715391159058,2,0.6225931852253433,0.0249265207455158,-0.169402821018038,0.7635828437267108,0.2490050047636032,-0.9423577189445496,-0.2235127836465836,-5.572845458984375,-50.04338836669922,6.305084228515625,2
1596230854.127595,4,0,103186.3203971667,-1.043375765723846,0.8391673608478943,1.232246562209621,0.002052129246294498,0.1516768336296082,0.04485708102583885,0.0002091526985168457,0.01345598697662354,0.0175667405128479,2,0.6232343429903026,0.0252461851826927,-0.1673323251642464,0.7635059951347954,0.2471257299184799,-0.9432373046875,-0.221883162856102,-5.649810791015625,-50.24890899658203,6.264190673828125,2
1596230854.157823,5,0,103186.3504961667,-1.040223838958858,0.8386907929968157,1.235187789905097,0.06372694671154022,-0.005506931804120541,0.1836104243993759,0.07340845465660095,0.006644368171691895,0.01240295171737671,2,0.6239327672016188,0.02520130130958709,-0.1654673861739507,0.7633435071820682,0.2449555546045303,-0.9442100524902344,-0.2201455980539322,-5.666717529296875,-50.03054809570312,6.47113037109375,2
1596230854.188218,6,0,103186.3805941667,-1.030023887687426,0.8251283153547209,1.240979404176141,0.06202896311879158,-0.2245709002017975,0.2146271914243698,0.04681286215782166,0.01585614681243896,-0.03919345140457153,2,0.6242347035848032,0.02154967601705121,-0.1642173261055425,0.7634783099183543,0.237925723195076,-0.9461016654968262,-0.2197332978248596,-6.032371520996094,-50.10714721679688,6.16192626953125,2
1596230854.218756,7,0,103186.4106931667,-1.021375469370379,0.8125463394119411,1.246582442408817,0.03082667663693428,-0.07877790927886963,0.1573906093835831,0.02589106559753418,-0.006092309951782227,0.0325121283531189,2,0.6246205876018485,0.01785580474726775,-0.1633197298452538,0.763450546254321,0.2312897741794586,-0.9479014277458191,-0.2190605849027634,-6.472274780273438,-50.07686614990234,6.38616943359375,2
1596230854.248095,8,0,103186.4407911667,-1.03380832920243,0.8175360826399231,1.248464150558156,0.138228714466095,-0.2579289376735687,-0.04213904216885567,-0.077166348695755,0.02072834968566895,-0.03462541103363037,2,0.6256380513310854,0.01533855619952468,-0.1659903346106278,0.7620950442086543,0.2310786098241806,-0.9484992027282715,-0.2166835218667984,-6.418922424316406,-50.04880523681641,6.574127197265625,2
1596230854.278172,9,0,103186.4708901667,-1.031187346841175,0.8100152372229273,1.254398182883781,0.1952695846557617,-0.06856047362089157,0.3003060817718506,0.005106300115585327,0.05318057537078857,-0.02891945838928223,2,0.6265780474056715,0.01160609762948314,-0.1657309372556503,0.7614448547615141,0.2253615409135818,-0.9503622651100159,-0.2145304977893829,-6.740165710449219,-50.20210266113281,6.817901611328125,2
1596230854.30827,10,0,103186.5009891667,-1.032271797176789,0.8035583989011313,1.26655108828689,0.3401126563549042,-0.1982028931379318,0.2196012586355209,0.135657012462616,0.02570772171020508,-0.05465030670166016,2,0.6292830581569187,0.005360532889912867,-0.164869543839798,0.7594681720883506,0.2156415283679962,-0.9540733098983765,-0.2079481929540634,-6.883682250976562,-50.03821563720703,7.14300537109375,2
1596230854.338403,11,0,103186.5310871667,-1.033690840708078,0.7959590340769379,1.278774279077184,0.2631585597991943,-0.3077655136585236,0.3813734948635101,-0.02108040452003479,-0.03696709871292114,-0.08700799942016602,2,0.6318975726501056,-0.001434070359355027,-0.1644876925628793,0.7573948496314694,0.2057064324617386,-0.9576637148857117,-0.2014068067073822,-7.453132629394531,-50.04144287109375,7.732025146484375,2
1596230854.368491,12,0,103186.5611861667,-1.036490262681807,0.7926063578959963,1.292209785579117,0.3911489546298981,-0.08628300577402115,0.156423881649971,-0.1651396751403809,0.04283958673477173,0.04695630073547363,2,0.6351556381225384,-0.007395114235357797,-0.1629636514207652,0.7549604917842772,0.1958485245704651,-0.9614450931549072,-0.1930452585220337,-7.567054748535156,-49.73175811767578,8.131622314453125,2
1596230854.398606,13,0,103186.5912841667,-1.06551496083284,0.8226790169631114,1.303757342451314,0.4903625547885895,0.1478629112243652,0.08953597396612167,-0.07386493682861328,0.03869998455047607,-0.1180920600891113,2,0.6404476621812851,-0.0086384623379408,-0.1611263775675402,0.7508597147698939,0.1934134811162949,-0.9645564556121826,-0.1795043349266052,-8.013420104980469,-49.57102203369141,8.740966796875,2
1596230854.428646,14,0,103186.6213831667,-1.101057093241459,0.860294338506407,1.315574697642696,0.4711108207702637,-0.05900384858250618,0.1390618979930878,0.08086797595024109,0.01183998584747314,-0.1664530634880066,2,0.646205717042363,-0.009456695176424279,-0.1589965031325094,0.7463569097421749,0.1913727521896362,-0.9676073789596558,-0.1646574884653091,-7.904319763183594,-49.48660278320312,9.127227783203125,2
1596230854.458846,15,0,103186.6514811667,-1.140446099019965,0.8949633273072056,1.330597462891992,0.6844482421875,-0.1372621208429337,0.144257590174675,-0.09898209571838379,0.07349663972854614,-0.0786166787147522,2,0.6522272792236694,-0.01386216411285873,-0.1580376610514102,0.7412363971785377,0.1856026649475098,-0.9712907075881958,-0.1488148272037506,-8.275871276855469,-49.26154327392578,10.13619995117188,2
1596230854.48886,16,0,103186.6815801667,-1.195049856005347,0.9502806743631087,1.342887920155087,0.4805151224136353,0.3596255481243134,0.01626081019639969,-0.06648936867713928,0.02374386787414551,0.09536749124526978,2,0.6588506668235572,-0.01513088897281539,-0.1563956488168231,0.7356813459951123,0.1838197261095047,-0.9741411209106445,-0.1313737034797668,-8.3179931640625,-49.16983795166016,10.7833251953125,2
1596230854.519003,17,0,103186.7116791667,-1.246623080516627,1.011964454642761,1.352338663928508,0.4573269784450531,0.3594565689563751,0.09021852910518646,-0.1453267633914948,-0.07368409633636475,0.01696723699569702,2,0.6651228422756724,-0.01258939221477906,-0.1519722976572117,0.7309975936666288,0.1837548613548279,-0.9762328863143921,-0.1149062216281891,-8.482345581054688,-48.95317840576172,11.75921630859375,2
1596230854.551241,18,0,103186.7417771667,-1.313678366957034,1.08634643343157,1.35781017665832,0.5933424234390259,0.2041586637496948,-0.2997129261493683,-0.1479404866695404,0.04153251647949219,-0.1444517374038696,2,0.671330182516133,-0.009694861238494334,-0.1497985377555238,0.725797480735225,0.1870555430650711,-0.9774040579795837,-0.09844359010457993,-8.543022155761719,-48.95282745361328,12.24288940429688,2
1596230854.57915,19,0,103186.7718761667,-1.406157461382008,1.179569601264369,1.356043648982794,0.6608932614326477,0.06688456982374191,-0.2528342306613922,0.01177504658699036,-0.0161745548248291,0.08095830678939819,2,0.6777355646797285,-0.006606997275145743,-0.15235152486398,0.71931886747051,0.1970030218362808,-0.9770291447639465,-0.08126170188188553,-8.052474975585938,-48.66864776611328,13.32855224609375,2
1596230854.609274,20,0,103186.8019741667,-1.505104071863405,1.2709605667614,1.357234414504118,0.5411683320999146,-0.3695455193519592,-0.2530657052993774,-0.01664093136787415,0.04821443557739258,0.1507241725921631,2,0.6845698139385451,-0.008016013433545216,-0.1562296687450337,0.7119635558571781,0.2024860084056854,-0.9772821664810181,-0.06259983032941818,-7.992088317871094,-48.4031982421875,13.8984375,2
1596230854.639651,21,0,103186.8320737917,-1.572675622392913,1.329301332168745,1.352204071693879,0.3917007148265839,-0.2052202224731445,-0.2275981307029724,-0.03218299150466919,-0.04859727621078491,0.04889607429504395,2,0.6884712114820556,-0.008744294656199331,-0.1618986045626665,0.7069085093455872,0.2105622291564941,-0.9762036800384521,-0.05186185613274574,-7.488616943359375,-48.32150268554688,14.81121826171875,2
1596230854.669422,22,0,103186.8621717917,-1.628211612600353,1.381306993146627,1.348794474170726,0.2864426374435425,-0.02902747318148613,-0.2645548284053802,0.001367479562759399,0.06890285015106201,0.1431465148925781,2,0.6922379485664598,-0.008379287740426344,-0.1646937800425647,0.7025753207673446,0.216240406036377,-0.9754586219787598,-0.04147281870245934,-6.933242797851562,-48.24115753173828,15.47161865234375,2
1596230854.702082,23,0,103186.8922707917,-1.6627106994035,1.411462335184875,1.342853615885775,0.2137349247932434,-0.2689120769500732,-0.06202193349599838,0.1291375756263733,-0.02312368154525757,-0.01661849021911621,2,0.6942729383481242,-0.007651819363632711,-0.1683911085947393,0.6996933766975447,0.2231109291315079,-0.9741333723068237,-0.0358530730009079,-6.703361511230469,-48.03002166748047,15.72479248046875,2
1596230854.729538,24,0,103186.9223687917,-1.694618547705083,1.43375815289483,1.344997710499465,0.2181290835142136,-0.2201203405857086,-0.03570608049631119,-0.06904265284538269,0.06482833623886108,0.1061844825744629,2,0.6961107890410186,-0.01172076186472126,-0.1710418509850801,0.6971635503480991,0.2217855751514435,-0.9746156334877014,-0.03058478608727455,-6.502532958984375,-47.94441223144531,16.2305908203125,2
1596230854.759834,25,0,103186.9524677917,-1.715632431174109,1.449146699193104,1.339618583183825,0.08753687888383865,-0.1243243589997292,-0.2759976089000702,-0.08778035640716553,-0.05040490627288818,0.03996491432189941,2,0.6971079890560237,-0.01176559147889425,-0.1748574988726015,0.6952169765219153,0.2274298369884491,-0.9733971953392029,-0.0278040450066328,-6.073738098144531,-47.77305603027344,16.33673095703125,2
1596230854.789804,26,0,103186.9825667917,-1.727753151997329,1.458091105145276,1.333739053204136,0.01933668181300163,-0.1119250729680061,-0.1515638530254364,0.006191134452819824,0.01068174839019775,0.04805999994277954,2,0.6976228311994516,-0.01078885813228112,-0.1779799586622607,0.6939228603014771,0.2333524972200394,-0.9720332622528076,-0.02641197107732296,-5.748931884765625,-47.90283203125,16.36935424804688,2
1596230854.819953,27,0,103187.0126647917,-1.72583010945875,1.451824322905245,1.327926440939317,-0.1054945737123489,-0.1658196896314621,-0.2426359057426453,0.01790690422058105,-0.005428433418273926,0.1341906785964966,2,0.6968669566288338,-0.01021909890384745,-0.1815043477813843,0.6937781776968425,0.2387891858816147,-0.9706518054008484,-0.02854402922093868,-5.408172607421875,-47.84085083007812,16.57281494140625,2
1596230854.851341,28,0,103187.0427637917,-1.704556100965176,1.424501310444873,1.321493771184476,-0.2365413159132004,-0.2618742883205414,-0.08626089990139008,-0.01214221119880676,-0.03866314888000488,0.07245492935180664,2,0.6942020888513987,-0.0100136363568134,-0.1858370126171623,0.6953039637289901,0.2440918385982513,-0.9690847396850586,-0.03596637398004532,-4.888107299804688,-47.78723907470703,16.2156982421875,2
1596230854.880174,29,0,103187.0728617917,-1.670866898608359,1.395766825841768,1.317630095443406,-0.4324865937232971,0.5554804801940918,-0.154379278421402,-0.07989856600761414,0.04391998052597046,0.2441657185554504,2,0.6914790738431071,-0.006974447205435802,-0.1853863698734031,0.6981688454451193,0.2466429024934769,-0.9681242108345032,-0.04361609369516373,-4.810256958007812,-48.19132232666016,15.99636840820312,2
1596230854.910232,30,0,103187.1029607917,-1.615466871239827,1.357041522243403,1.308506511545794,-0.5349496603012085,0.3277619481086731,-0.1875276267528534,-0.05509212613105774,-0.05308771133422852,0.0566895604133606,2,0.6873826333156472,0.001806450220950245,-0.1824679004093064,0.7029985699990001,0.2533904016017914,-0.9657987952232361,-0.05500370264053345,-4.869300842285156,-48.38545989990234,15.26116943359375,2
1596230854.940434,31,0,103187.1330587917,-1.556460945717817,1.317030150141639,1.300781566885223,-0.5678862929344177,0.8710666298866272,-0.1469276398420334,-0.1425656080245972,0.05730980634689331,0.0874936580657959,2,0.6829374043939379,0.01063963982996721,-0.1780017534367218,0.7083772994385751,0.2582018673419952,-0.9637669324874878,-0.06696660071611404,-4.909561157226562,-48.27392578125,14.66690063476562,2
1596230854.97045,32,0,103187.1631577917,-1.506991188851359,1.294404480362337,1.285013459217956,-0.6184328198432922,0.8954578042030334,-0.6019372940063477,-0.1141403913497925,-0.03812456130981445,-0.06534051895141602,2,0.6789044174050886,0.02498780422998201,-0.1734972786349183,0.712995715445489,0.2712085247039795,-0.9594412446022034,-0.07692880183458328,-4.784866333007812,-48.68606567382812,13.44073486328125,2
1596230855.002032,33,0,103187.1932567917,-1.463278143041818,1.280426483727251,1.264007738301909,-0.5170088410377502,0.8712894916534424,-0.5990382432937622,-0.4710381627082825,-0.1143034100532532,-0.1054025888442993,2,0.6745329554221725,0.04211024118903675,-0.1697097958912518,0.7172380232363715,0.2893558442592621,-0.9533083438873291,-0.0864640399813652,-4.499710083007812,-48.73049926757812,12.99349975585938,2
1596230855.03062,34,0,103187.2233547917,-1.436327809739029,1.292846888951686,1.224438599843543,-0.8465438485145569,1.609166979789734,-1.831810832023621,-0.9147042036056519,-0.3997541069984436,0.289555549621582,2,0.6697904182021738,0.06933687317047386,-0.1691899155651749,0.7196860240451168,0.3264451324939728,-0.9406154155731201,-0.09314638376235962,-3.514968872070312,-49.22144317626953,11.8492431640625,2
1596230855.060696,35,0,103187.2534537917,-1.39538108416911,1.294633924276701,1.148285937649229,-1.461690068244934,1.131943583488464,-2.711328029632568,-0.5148823857307434,-0.4268378615379333,0.2781835198402405,2,0.6573155081994366,0.109694841735483,-0.1793206404988898,0.7237038480735504,0.3945136368274689,-0.912062406539917,-0.1118067279458046,-2.054443359375,-49.31223297119141,10.914306640625,2
1596230855.091041,36,0,103187.2835517917,-1.356665874074773,1.309465259779288,1.046875785363833,-1.958754420280457,2.153703212738037,-3.167333126068115,-0.4167409539222717,-1.253623843193054,0.1873970627784729,2,0.6396681344376971,0.1618550360932907,-0.1940892735058826,0.7259179242946201,0.4832924008369446,-0.8658644556999207,-0.1292552500963211,2.573936462402344,-49.78773498535156,8.67230224609375,2
1596230855.120991,37,0,103187.3136507917,-1.233722846779864,1.288674862354438,0.9382966555539338,-3.87343168258667,4.217718601226807,-3.052379369735718,-1.340033531188965,-1.087600946426392,0.7756630778312683,2,0.6047844719397861,0.2279204937370273,-0.1909951724970406,0.7387885988413797,0.5677919387817383,-0.8065522909164429,-0.1645759791135788,7.870895385742188,-49.26851654052734,4.23065185546875,2
1596230855.151232,38,0,103187.3437487917,-1.096613635927644,1.344813789821096,0.8036171565026342,-4.143799781799316,6.211198329925537,-3.903794288635254,-0.8841545581817627,-0.01785039901733398,0.8375627398490906,2,0.5599130161377914,0.3297502167903115,-0.1674179882916685,0.7414399216227461,0.6764589548110962,-0.719871461391449,-0.155524417757988,10.91750335693359,-48.68321990966797,1.616668701171875,2
1596230855.181103,39,0,103187.3738477917,-0.9512493409182805,1.455762631508205,0.6625518571343529,-4.555214881896973,7.131942749023438,-4.043954849243164,-0.02793043851852417,0.3151929974555969,0.8163937330245972,2,0.5039432913397645,0.4480997558463414,-0.1309015478947764,0.7267134186405098,0.7832141518592834,-0.6151307821273804,-0.09049553424119949,18.34617614746094,-45.81836700439453,-1.59197998046875,2
1596230855.211141,40,0,103187.4039457917,-0.7883494028811249,1.556857375572072,0.5407735606202549,-4.801250457763672,5.174980163574219,-3.246411085128784,0.5630239248275757,0.3171655535697937,0.3688633441925049,2,0.4354636063283107,0.5517215204669468,-0.09034499331803358,0.7055582517666845,0.8572272658348083,-0.5147993564605713,-0.01194962300360203,21.78374481201172,-43.93243408203125,-2.61370849609375,2
1596230855.241343,41,0,103187.4340447917,-0.6341066694748729,1.568673567326795,0.4732374231440025,-4.080047130584717,0.7547197937965393,-1.137686371803284,0.7986704707145691,0.3609169721603394,-0.1106346845626831,2,0.3717463082326794,0.6007161990588454,-0.05720912956638108,0.7054585088452385,0.8900952935218811,-0.4557702839374542,-0.001889460952952504,26.8626708984375,-40.06665802001953,-5.400848388671875,2
1596230855.271559,42,0,103187.4641437917,-0.5002621325391876,1.502939192216877,0.4641528523809731,-4.148539543151855,-0.9127116799354553,0.65273517370224,0.07491487264633179,0.2817472815513611,0.2810070514678955,2,0.3272891995265593,0.6021346206765693,-0.02388189856191408,0.7278359297681187,0.8921430110931396,-0.4476654529571533,-0.06063135713338852,27.40681457519531,-38.98987579345703,-8.586700439453125,2
1596230855.302123,43,0,103187.4942417917,-0.3469891531923389,1.393243063310868,0.4821950376637922,-4.706402778625488,-1.421656012535095,1.549562811851501,-0.3922192454338074,0.3423087596893311,0.4195892810821533,2,0.287947630680666,0.5821035480991896,0.02232458012678815,0.7600941413088749,0.8720503449440002,-0.4637250602245331,-0.1564832478761673,25.75727844238281,-37.48780822753906,-16.01852416992188,2
1596230855.331549,44,0,103187.5243407917,-0.1815685539000252,1.290879996917184,0.5086141264817272,-4.199258804321289,0.3933099508285522,2.474805116653442,-0.2948756814002991,0.5672866106033325,0.360724925994873,2,0.2529215153398683,0.5615857251193218,0.08061878883660847,0.7836789654970771,0.8394253849983215,-0.4869672656059265,-0.2413043677806854,24.05464935302734,-36.67193603515625,-19.8896484375,2
1596230855.361743,45,0,103187.5544387917,-0.0287967353787834,1.271071278485112,0.5605628568119945,-3.215272426605225,3.317659854888916,3.225936889648438,-0.2778573632240295,0.595690131187439,0.1911749243736267,2,0.2308060474907811,0.567180333818139,0.1530560777683372,0.7756343613910148,0.8091965913772583,-0.5316630005836487,-0.2500700652599335,21.21706390380859,-35.58005523681641,-24.34341430664062,2
1596230855.391793,46,0,103187.5845377917,0.1045901314093196,1.316723591682387,0.624951252790658,-2.751590251922607,4.17091703414917,2.718789100646973,-0.3393889665603638,0.01656413078308105,0.0830460786819458,2,0.212399703224303,0.5941092695930732,0.2271704913725463,0.7418314288289426,0.7849559783935547,-0.5850577354431152,-0.2038410902023315,20.8134765625,-35.32865142822266,-25.07388305664062,2
1596230855.42201,47,0,103187.6146357917,0.2175381032962302,1.365117474890261,0.6711292587115215,-2.495384931564331,3.769037008285522,1.829901576042175,-0.2820525169372559,-0.465617299079895,0.431254506111145,2,0.1893608088129652,0.619817330535316,0.2860261002189138,0.7058030175775238,0.7666136026382446,-0.621870756149292,-0.1599379181861877,21.48690795898438,-34.83567047119141,-25.04586791992188,2
1596230855.451989,48,0,103187.6447347917,0.3405236639078701,1.411155054805228,0.7192385707704776,-3.130982160568237,4.63300609588623,2.647517204284668,-0.09804677963256836,-0.002859711647033691,0.7634746432304382,2,0.1611704907402002,0.6436063745444576,0.3456430424704454,0.6635703041490991,0.7427412271499634,-0.6588120460510254,-0.1195898130536079,22.03277587890625,-34.76854705810547,-25.0594482421875,2
1596230855.482204,49,0,103187.6748327917,0.4761300828932553,1.484438342173152,0.801048849481816,-2.751810789108276,5.959443092346191,3.443080186843872,-0.326779842376709,0.06037312746047974,0.590009331703186,2,0.1324582492108108,0.6726377782136845,0.4161508842449241,0.5973536010129682,0.6933599710464478,-0.7180864214897156,-0.06002646312117577,23.33363342285156,-34.03582763671875,-23.9840087890625,2
1596230855.512076,50,0,103187.7049317917,0.625371457617971,1.51745192052036,0.8978414888159412,-2.171539306640625,1.805939316749573,2.659175395965576,-0.3224532604217529,0.1959952712059021,-0.4614896774291992,2,0.1090142923933529,0.686657854855027,0.4852291357587282,0.5302540441715242,0.622412383556366,-0.7819833159446716,-0.03323375061154366,23.73314666748047,-34.5703125,-22.99142456054688,2
1596230855.542376,51,0,103187.7350307917,0.5689982249326196,1.75563843383168,0.8963242812823692,0.14606773853302,13.75824737548828,-2.075393438339233,3.666103839874268,-0.06846827268600464,3.666512012481689,2,0.07107127467787139,0.7431933058764764,0.4815631097596605,0.4590307468735587,0.6138465404510498,-0.7810367345809937,0.1147748306393623,24.82391357421875,-35.73335266113281,-19.80697631835938,2
1596230855.572456,52,0,103187.7651287917,0.6785222947748399,1.726656058209949,0.9036067512654974,0.2239865958690643,-5.895103454589844,0.2727743089199066,0.8135119676589966,1.043726205825806,-2.214838266372681,2,0.04002492874145289,0.7392052923572177,0.5074814255646073,0.4409488324703632,0.6112796068191528,-0.7855638265609741,0.09605291485786438,28.52449035644531,-34.30670928955078,-16.5452880859375,2
1596230855.602571,53,0,103187.7952277917,0.5530696487099773,1.672062341732217,0.887123020077348,2.745352268218994,-3.310267686843872,-0.2608069777488708,0.09880536794662476,0.5829607844352722,1.06989312171936,2,0.09380621158509284,0.7232757709819794,0.4716587497218065,0.4955910439451329,0.6284089684486389,-0.7752577066421509,0.0638548955321312,26.68403625488281,-34.87141418457031,-18.4832763671875,2
1596230855.632466,54,0,103187.8253251667,0.5111867763711908,1.581912652502911,0.9144438382934954,0.2834775447845459,-3.247101545333862,2.070773363113403,-0.884620726108551,-1.030928611755371,0.9148283004760742,2,0.139036402415301,0.695744617462821,0.4632039270265284,0.5310840957873729,0.6101933717727661,-0.792223334312439,0.006783387623727322,22.77655792236328,-36.55738830566406,-20.7994384765625,2
1596230855.66273,55,0,103187.8554241667,0.4991260490683306,1.583070324150683,0.969171857604966,-0.1012164652347565,1.301947712898254,1.035164594650269,-0.7694763541221619,-0.4612281322479248,-0.1006420850753784,2,0.1617501715436967,0.6908764186366192,0.4747318490355661,0.5207265039235824,0.5659394264221191,-0.8244172930717468,0.006946687586605549,20.9766845703125,-37.70341491699219,-21.14730834960938,2
1596230855.692769,56,0,103187.8855221667,0.5141324830899292,1.634390643674982,0.9730954423857683,-0.2164989709854126,2.153454303741455,-0.5366931557655334,-0.1779094934463501,0.1878977417945862,-0.3531824350357056,2,0.1455480517459397,0.7047675771204641,0.4835493179429734,0.4982953964577421,0.5616055727005005,-0.8266316056251526,0.03576314449310303,21.44578552246094,-37.99354553222656,-20.07574462890625,2
1596230855.722941,57,0,103187.9156211667,0.5155635667053131,1.663337937750208,0.9624640506653747,0.02487658709287643,-0.01155643910169601,0.1725082844495773,0.2116650342941284,-0.0362471342086792,-0.3090798854827881,2,0.1344938832570898,0.7129638094068778,0.4830164061400962,0.4901926587569202,0.5690537691116333,-0.8206022381782532,0.05281199514865875,22.25981903076172,-37.87117767333984,-19.34622192382812,2
1596230855.753109,58,0,103187.9457191667,0.5072730186217992,1.657000913482645,0.9832006324854305,0.1405624896287918,-0.5798944234848022,0.9209679961204529,0.02843606472015381,-0.1424242258071899,0.07438349723815918,2,0.1458652406407378,0.7089343921601624,0.4862585528765176,0.4895789916180432,0.5523023009300232,-0.832275927066803,0.04772927984595299,21.52386474609375,-38.18784332275391,-19.19656372070312,2
1596230855.783169,59,0,103187.9758181667,0.5055166535197965,1.64393115872068,1.001856770859662,-0.1559937596321106,-0.2008896470069885,0.2448838800191879,-0.3096402883529663,0.01950860023498535,0.1235121488571167,2,0.155879935080114,0.7038353247363254,0.4899220490965671,0.4901973501614438,0.5372983813285828,-0.8424727320671082,0.03936543688178062,20.54939270019531,-38.77274322509766,-19.4996337890625,2
1596230855.8131,60,0,103188.0059171667,0.5174144872595069,1.642471383549642,1.002009180918391,-0.2508769929409027,0.708027720451355,-0.1833386719226837,-0.4119699001312256,0.04945290088653564,0.1403541564941406,2,0.1521007499026014,0.7043800868011291,0.4927594816194778,0.4877520918122479,0.5372275710105896,-0.8425548672676086,0.03857189044356346,20.29006958007812,-38.45143890380859,-19.57577514648438,2
1596230855.843355,61,0,103188.0360151667,0.5268753893156161,1.656333234965869,0.9937443209339578,-0.09552588313817978,0.5070382356643677,-0.371111124753952,-0.140878438949585,-0.1471971273422241,0.01282250881195068,2,0.1425837126591951,0.7092065948770541,0.4938477698740963,0.4825038959046301,0.5435605645179749,-0.8380745649337769,0.04660821706056595,20.90659332275391,-38.32691192626953,-19.48373413085938,2
1596230855.873466,62,0,103188.0661141667,0.5398517868134534,1.653778748897377,0.9835293401624896,-0.3180134296417236,-0.03901645913720131,-0.2756823301315308,0.2425335645675659,-0.1122111082077026,-0.04926109313964844,2,0.1352041189479788,0.7104106126178868,0.4940402529678291,0.4826599940209334,0.5521810054779053,-0.8324581384658813,0.045926783233881,21.75484466552734,-37.95698547363281,-19.3707275390625,2
1596230855.903611,63,0,103188.0962121667,0.5520641635893363,1.623941321004259,0.9816284357542959,-0.01886950805783272,-1.073745131492615,0.08043608814477921,0.1126105785369873,-0.04780471324920654,-0.06671416759490967,2,0.1376197066499186,0.7041444348268643,0.4944696430424392,0.4906537478310641,0.554884672164917,-0.8314033150672913,0.02951713837683201,21.76413726806641,-37.7684326171875,-19.4923095703125,2
1596230855.933518,64,0,103188.1263111667,0.5470439390433066,1.593824622464999,0.9834780948144884,-0.02396545931696892,-0.9651502966880798,-0.01521986722946167,-0.1063089370727539,-0.01955783367156982,0.2199119329452515,2,0.1474309829122823,0.6961636863123197,0.4915609526919875,0.501983870110234,0.5539832711219788,-0.8324297070503235,0.01275954581797123,21.18753814697266,-37.73506927490234,-20.6199951171875,2
1596230855.963675,65,0,103188.1564091667,0.5528926638580743,1.568335267442928,0.9799906761512531,-0.08535793423652649,-0.5649551153182983,-0.1178070604801178,0.08228492736816406,-0.038352370262146,0.199126124382019,2,0.1504602123949864,0.6904174701696794,0.4902477673357026,0.5102376497326881,0.5570284128189087,-0.8304921984672546,-0.001370882731862366,20.61500549316406,-37.75450134277344,-21.03268432617188,2
1596230855.993673,66,0,103188.1865081667,0.5564984642854974,1.547100800574863,0.9830091150293229,-0.06830047816038132,-0.5657116174697876,0.2912334203720093,-0.001928985118865967,-0.1391446590423584,0.23829185962677,2,0.1554736275215119,0.6850246285013545,0.4903096000208853,0.515912094697986,0.5543645620346069,-0.832169771194458,-0.0131384190171957,20.16474914550781,-37.84255981445312,-21.6624755859375,2
1596230856.02376,67,0,103188.2166061667,0.5691753199919554,1.526606062821748,0.9931115260849342,-0.3393654525279999,-0.3539597988128662,0.324425220489502,-0.3214256763458252,-0.03502857685089111,0.5474326014518738,2,0.159727380990231,0.6800185735317128,0.4944600213208518,0.5172725986985665,0.5455523133277893,-0.8377292156219482,-0.02412380650639534,19.816650390625,-37.76181793212891,-21.72772216796875,2
1596230856.054287,68,0,103188.2467051667,0.5708563759806148,1.501448366132652,0.9928247916534705,0.4149597585201263,-1.400378942489624,-0.4310161173343658,-0.2151350975036621,0.2807002067565918,0.3179303407669067,2,0.1652666487432633,0.6736162322439229,0.4927850627987802,0.5254434039493442,0.5450125336647034,-0.8375725746154785,-0.03785621374845505,19.09677886962891,-37.78044891357422,-22.67697143554688,2
1596230856.087646,69,0,103188.2768041667,0.5045456186401084,1.480196187008904,0.9765586903822052,1.970896363258362,-3.723167181015015,-0.6142405867576599,0.2883438467979431,0.2257574796676636,0.2838627099990845,2,0.1867717484030302,0.6631655338026511,0.4691052079609335,0.5525106448765293,0.557580828666687,-0.8285755515098572,-0.05065557733178139,17.86715698242188,-38.02037811279297,-23.03277587890625,2
1596230856.114154,70,0,103188.3069021667,0.3531577494283062,1.436374988087868,0.9773176685594078,3.697496652603149,-7.927669048309326,0.006673288065940142,0.9519397020339966,-0.02281993627548218,0.2267023324966431,2,0.2459315945977501,0.6340688677883993,0.4208926150957684,0.6002694736638424,0.5542027950286865,-0.8290002942085266,-0.07494864612817764,15.90043640136719,-39.18727874755859,-23.43106079101562,2
1596230856.144217,71,0,103188.3370011667,0.1279805904572928,1.324121204941876,1.002100251395857,4.291608810424805,-10.89679145812988,0.04077968746423721,1.132482290267944,0.1511884331703186,0.6939579844474792,2,0.3436085603574455,0.5623017941987096,0.3389225340307994,0.6714768693754365,0.5222319364547729,-0.8426039218902588,-0.1314996927976608,7.741485595703125,-42.48733520507812,-22.02410888671875,2
1596230856.17435,72,0,103188.3670991667,-0.1153589124627932,1.22232226245879,1.031809684977202,4.21709156036377,-8.975475311279297,-1.004220247268677,0.02848196029663086,0.211980938911438,0.9576519727706909,2,0.4321240655918093,0.4750134854723694,0.2415394139478543,0.7275228771887534,0.4824163615703583,-0.8582292199134827,-0.1752619594335556,3.205924987792969,-44.78219604492188,-20.1597900390625,2
1596230856.20672,73,0,103188.3971981667,-0.3471674059191412,1.21326149428333,1.015775035019236,2.763019323348999,-4.711699485778809,-2.589634895324707,-0.7406449913978577,-0.1250102519989014,0.5638424754142761,2,0.4795889889102816,0.4216457862424196,0.1491073414017901,0.7549675585383089,0.4936372935771942,-0.8498892188072205,-0.1844184696674347,0.1334686279296875,-47.35279083251953,-14.914306640625,2
1596230856.234924,74,0,103188.4272961667,-0.5220876193573345,1.27372345909085,0.9632554743490042,2.371901750564575,-1.435853004455566,-2.597149848937988,-0.400290846824646,0.02794796228408813,0.02138447761535645,2,0.4958177777784328,0.4130549518485075,0.08224370709704007,0.7594644610087332,0.5458453297615051,-0.8210542798042297,-0.1671006828546524,1.239578247070312,-47.89859771728516,-12.5587158203125,2
1596230856.266833,75,0,103188.4573951667,-0.670898782472687,1.352421104945676,0.9140484996465553,2.358601093292236,-1.86021363735199,-2.022725343704224,0.05779182910919189,0.1424431800842285,-0.318048357963562,2,0.5098715363431391,0.4170081005680328,0.03037471273456283,0.7518060482577379,0.5960440039634705,-0.7919819951057434,-0.1322705149650574,5.152236938476562,-48.42477416992188,-8.513427734375,2
1596230856.294707,76,0,103188.4874931667,-0.8010474635354895,1.374903277313756,0.8790297263915754,2.569791078567505,-3.269076347351074,-1.263295292854309,0.4073227643966675,-0.06570863723754883,-0.3823136687278748,2,0.5267321746081836,0.4005897108451178,-0.02406047660592189,0.7493343885604132,0.6256981492042542,-0.7701203227043152,-0.1241621971130371,6.559715270996094,-48.49805450439453,-6.718048095703125,2
1596230856.32692,77,0,103188.5175921667,-0.9274699544388435,1.354233466475811,0.8756008092994457,2.575715303421021,-4.395777702331543,-0.06897864490747452,0.1436550617218018,-0.05143576860427856,-0.0893288254737854,2,0.549340472589964,0.35973300702573,-0.07816134477245221,0.7501385323441135,0.6255735754966736,-0.7679284811019897,-0.1376344114542007,7.940467834472656,-48.97362518310547,-3.24761962890625,2
1596230856.355041,78,0,103188.5476911667,-1.039674116447502,1.309530439222822,0.9036889465553436,2.500142097473145,-4.249526977539062,0.7100505232810974,-0.1939672231674194,0.02171540260314941,0.1514961123466492,2,0.5727203137695424,0.3034520876936891,-0.1236983413843451,0.7514031541062531,0.5977188348770142,-0.7856146693229675,-0.1598165482282639,7.827583312988281,-49.07664489746094,-1.640045166015625,2
1596230856.385395,79,0,103188.5777891667,-1.141408080662958,1.273061479021638,0.9533904314418217,2.205667495727539,-3.482982635498047,1.321335554122925,-0.3537110686302185,-0.01590198278427124,0.3121143579483032,2,0.5958251299004587,0.2451070811582707,-0.1564787576262902,0.7486182109962618,0.5534511804580688,-0.8153829574584961,-0.169829860329628,6.162261962890625,-49.73638153076172,1.409698486328125,2
1596230856.415133,80,0,103188.6078881667,-1.210210205965783,1.241618782307814,1.01401835706556,1.45008385181427,-2.535270214080811,1.668759346008301,-0.3276513814926147,-0.1580083966255188,0.4218627214431763,2,0.6141029026084101,0.1935521422484595,-0.1721988696615316,0.7454948710767872,0.5000799298286438,-0.8489621877670288,-0.1708303838968277,5.221336364746094,-49.64760589599609,2.963134765625,2
1596230856.446161,81,0,103188.6379861667,-1.236556632697583,1.201415625887293,1.074794876523804,0.7583797574043274,-1.555392026901245,1.848138093948364,-0.3203082084655762,-0.2195567488670349,0.4316267371177673,2,0.6255550619007209,0.1508961796305933,-0.1749831513218797,0.7451791080660222,0.4438125491142273,-0.8794925212860107,-0.1718224138021469,2.443870544433594,-49.98744201660156,5.090057373046875,2
1596230856.475812,82,0,103188.6680851667,-1.207299454457715,1.138859768664709,1.133879614341527,0.06666867434978485,-0.86634761095047,2.052299976348877,-0.4380922615528107,-0.2577627301216125,0.2874377369880676,2,0.6305417606510082,0.1176687741564207,-0.1649035302920218,0.7492514420917464,0.384284108877182,-0.9060606360435486,-0.1771422922611237,0.5341415405273438,-50.10302734375,5.59869384765625,2
1596230856.507,83,0,103188.6981831667,-1.141088091613348,1.066559459632616,1.18769987150554,0.0683782622218132,0.1169563084840775,1.910281896591187,-0.3369314074516296,-0.06167024374008179,0.1702714562416077,2,0.6330892363093662,0.09434344353165199,-0.1460673325498692,0.7542954312250227,0.3272729814052582,-0.9275116324424744,-0.1805946677923203,-3.059173583984375,-50.32896423339844,5.5250244140625,2
1596230856.535645,84,0,103188.7282821667,-1.089852689936906,1.034438724285649,1.232100709319344,0.4756310880184174,0.289951354265213,1.091965436935425,-0.1568522453308105,0.01464736461639404,0.243756115436554,2,0.6386858421453879,0.08477886606803402,-0.1233970015890517,0.7547621304988198,0.2855995893478394,-0.9431888461112976,-0.1697858721017838,-6.445976257324219,-50.07572937011719,5.7515869140625,2
1596230856.567473,85,0,103188.7583801667,-1.087099656253102,0.986115478162739,1.259255542986109,-0.03907043486833572,-2.440525531768799,0.7535826563835144,-0.2118362486362457,-0.07732880115509033,0.1754096746444702,2,0.6418014525923582,0.05916189673331468,-0.129673964657168,0.7535086760419025,0.2556078732013702,-0.9518623948097229,-0.1691815257072449,-7.139625549316406,-50.05321502685547,6.508026123046875,2
1596230856.595743,86,0,103188.7884791667,-1.031142718614388,0.877885360617901,1.286472205674799,0.6358292102813721,-1.492685317993164,1.248806595802307,-0.3552323281764984,0.02143776416778564,0.004915058612823486,2,0.640011784844547,0.02816889662445199,-0.1353400685572334,0.7558268812731752,0.2158200889825821,-0.9598514437675476,-0.1791828572750092,-8.55108642578125,-49.86225128173828,7.109344482421875,2
1596230856.626761,87,0,103188.8185784167,-1.016544194139511,0.8362485941671689,1.321689157751486,0.2989213466644287,0.01270638033747673,0.3436680436134338,-0.6826121807098389,0.130669891834259,0.2676844596862793,2,0.6460098597962082,0.007063894586959718,-0.1333932802481289,0.7515500443437036,0.182964488863945,-0.9691329002380371,-0.1652427315711975,-9.372657775878906,-49.69763946533203,7.99713134765625,2
1596230856.655958,88,0,103188.8486764167,-1.038217920355447,0.8784403645820031,1.313018587138737,0.05237020924687386,1.249353885650635,-0.6973456740379333,-0.2557393312454224,-0.390347421169281,-0.3665863871574402,2,0.6467559548937061,0.01840382650864836,-0.1303274124874323,0.7512539545833333,0.1962319612503052,-0.9669588804244995,-0.1627360731363297,-9.575355529785156,-49.41335296630859,8.2784423828125,2
1596230856.68621,89,0,103188.8787754167,-1.075771258729755,0.9579947361799414,1.303558486193835,-0.06327776610851288,0.9937852621078491,-0.1425295621156693,0.04347772896289825,1.639127731323242e-05,0.1501350998878479,2,0.650037184833598,0.03887062815753686,-0.1213612057876607,0.7491407945181858,0.2160177379846573,-0.9645039439201355,-0.1518814712762833,-9.103645324707031,-49.46142578125,8.181182861328125,2
1596230856.71785,90,0,103188.9088734167,-1.109189612301599,0.9926965461983608,1.307244717807808,0.7260090112686157,-0.8758525252342224,-0.1173698604106903,0.0163702666759491,0.03444409370422363,0.1456159949302673,2,0.6536343999161829,0.03982923720123269,-0.1214419908196059,0.7459404824149724,0.2181778103113174,-0.9654708504676819,-0.1423514038324356,-8.705245971679688,-49.62651062011719,8.36810302734375,2
1596230856.746509,91,0,103188.9389724167,-1.165097929850544,1.012133032322206,1.305576187701573,-0.02792350575327873,-1.002364635467529,-0.3519414663314819,0.3531644642353058,-0.2145483493804932,0.104909360408783,2,0.6554948137944252,0.02928089304763953,-0.1363892747612862,0.7422042097709183,0.2222697287797928,-0.9650348424911499,-0.1389383524656296,-8.541069030761719,-49.50102233886719,8.9571533203125,2
1596230856.776336,92,0,103188.9690704167,-1.167099027120619,0.9920188282764109,1.308558874917869,0.1773198693990707,-0.7843422889709473,0.489498645067215,-0.1123539805412292,0.005981922149658203,-0.02261626720428467,2,0.6547427268698411,0.0202268071189404,-0.1428078323841463,0.7419627644373049,0.2170198559761047,-0.9658123254776001,-0.1418056786060333,-8.078369140625,-49.33869934082031,9.59197998046875,2
1596230856.806752,93,0,103188.9991694167,-1.153447715793615,0.9687220725588565,1.318903511266862,-0.003044735640287399,0.2113772183656693,-0.03693892061710358,-0.4063419103622437,-0.02392929792404175,0.3368326425552368,2,0.6551772988339972,0.01283052724877576,-0.1422325280565707,0.7418543306010584,0.2054118067026138,-0.9684423804283142,-0.1411561667919159,-8.486297607421875,-49.23895263671875,9.886199951171875,2
1596230856.836639,94,0,103189.0292674167,-1.158007302802679,0.9855012006188434,1.307666272730305,-0.2614873647689819,0.425616443157196,-0.3866921663284302,0.06254200637340546,-0.04790270328521729,-0.1088529825210571,2,0.6539952819731617,0.02106103680003465,-0.1418372230989957,0.7427844467537649,0.2168093770742416,-0.9655805826187134,-0.143693208694458,-8.43438720703125,-49.56885528564453,9.431243896484375,2
1596230856.867213,95,0,103189.0593664167,-1.143233225305024,0.9771220242145744,1.304422517715322,-0.05484018474817276,-0.3679291605949402,0.2797820568084717,0.1532261073589325,0.01094448566436768,-0.1865702867507935,2,0.6525384049913827,0.02377946621407859,-0.1400637781716529,0.7443186893377091,0.218192994594574,-0.964731752872467,-0.1472563296556473,-8.189109802246094,-49.58446502685547,9.0858154296875,2
1596230856.896663,96,0,103189.0894644167,-1.136164294865334,0.9491645870231936,1.305749034087443,-0.1233348101377487,-0.7761831283569336,-0.2127795219421387,-0.1194440871477127,0.03098171949386597,0.2055020928382874,2,0.6507616492627462,0.01526457618519791,-0.1461430300796585,0.7449284521723505,0.212950587272644,-0.9650801420211792,-0.152552530169487,-8.234878540039062,-49.56914520263672,9.054443359375,2
1596230856.926923,97,0,103189.1195634167,-1.121318132102566,0.9208376476653068,1.294291225195961,-0.4010426998138428,-0.1718184947967529,-0.1271616220474243,-0.002122312784194946,-0.04387193918228149,0.09933936595916748,2,0.6459326202326477,0.01300451318948675,-0.1531779790329686,0.7477555566844112,0.2173337042331696,-0.9620153903961182,-0.165203869342804,-8.119300842285156,-49.48358154296875,9.125946044921875,2
1596230856.957056,98,0,103189.1496624167,-1.094202328162529,0.8914791321625437,1.289449670651307,-0.1807309538125992,-0.1826125979423523,0.08655346930027008,-0.202411562204361,0.005634486675262451,-0.1125233769416809,2,0.6423652363512258,0.01219636690383438,-0.1538844423516936,0.7506913657721621,0.2160114496946335,-0.9606823921203613,-0.1744363009929657,-7.860580444335938,-49.62089538574219,8.5035400390625,2
1596230856.988213,99,0,103189.1797604167,-1.086599874947742,0.8822248074551475,1.283467382325043,-0.1501503437757492,0.1067634671926498,-0.3389029800891876,0.05021734535694122,0.1406674385070801,0.06134629249572754,2,0.6401518109463453,0.01293621342194506,-0.1557136671162885,0.7521910619940506,0.2188217788934708,-0.9590042233467102,-0.1800766289234161,-7.930984497070312,-49.69777679443359,8.31378173828125,2
1596230857.021409,100,0,103189.2098594167,-1.092016004253036,0.8880786168209872,1.27543044962392,-0.1070540100336075,-0.1980015337467194,0.006797737441956997,0.09924948215484619,-0.1507658958435059,-0.06006193161010742,2,0.6386905460473158,0.01579552539737952,-0.1581842597221717,0.7528629601168518,0.2258453071117401,-0.9566956758499146,-0.1836497783660889,-7.25897216796875,-49.83335113525391,7.993804931640625,2
1596230857.060927,101,0,103189.2399574167,-1.075213623967191,0.8632585898033396,1.275881125375886,-0.1429462283849716,-0.2804245054721832,0.04855849966406822,-0.07942752540111542,0.08401685953140259,0.06956082582473755,2,0.6367143272545353,0.01166745178792047,-0.1596385293694305,0.7543036977346489,0.2208898812532425,-0.9568268060684204,-0.1889174729585648,-7.309867858886719,-49.74179840087891,7.85101318359375,2
1596230857.077369,102,0,103189.2700564167,-1.072782227732237,0.857719686881439,1.270618268062167,-0.111168161034584,0.07285778969526291,-0.2036167979240417,0.03775815665721893,0.06044936180114746,0.04755473136901855,2,0.6349358736183874,0.01189464959550104,-0.16196759655532,0.7553022198727802,0.2236461788415909,-0.9552838802337646,-0.1934299021959305,-7.31414794921875,-49.73406982421875,7.820404052734375,2
1596230857.121237,103,0,103189.3001544167,-1.068723412833912,0.856987113624449,1.267427756271899,-0.1558703929185867,0.00623671617358923,0.09637682139873505,-0.07612673938274384,-0.1462159752845764,0.0107414722442627,2,0.6340460284948322,0.0138396977525925,-0.1615644683086634,0.7561025176839475,0.2258070856332779,-0.9543355703353882,-0.1955881863832474,-7.182281494140625,-49.88380432128906,7.74237060546875,2
1596230857.137481,104,0,103189.3302534167,-1.051319314643059,0.8406978257614408,1.262714493326737,-0.249697744846344,0.09257788956165314,-0.1749984174966812,-0.05804246664047241,0.1093194484710693,0.04899156093597412,2,0.631402797181208,0.01454894561147288,-0.1614455228733436,0.7583231333008249,0.2259399145841599,-0.9529169797897339,-0.2022376656532288,-7.196075439453125,-50.31043243408203,7.2060546875,2
1596230857.182387,105,0,103189.3603514167,-1.047018470629874,0.8431827893928442,1.253419739783254,-0.2355961203575134,0.1511462777853012,-0.1100078150629997,0.01274111866950989,-0.03548645973205566,0.03004723787307739,2,0.6291578300388816,0.01953263456286314,-0.1616090044153932,0.7600403605170523,0.2330463230609894,-0.9500573873519897,-0.2075577974319458,-6.884666442871094,-50.15572357177734,6.748504638671875,2
1596230857.197613,106,0,103189.3904504167,-1.032580657199579,0.8282418511866895,1.248816595865967,-0.1631500273942947,-0.151248425245285,-0.009127432480454445,-0.06178492307662964,0.02493667602539062,-0.106792151927948,2,0.6265989549919321,0.01970162362939207,-0.1620746324012078,0.7620480854314389,0.2331387549638748,-0.948610782623291,-0.2139711976051331,-6.87872314453125,-50.26696014404297,6.600189208984375,2
1596230857.242105,107,0,103189.4205494167,-1.031960362588081,0.8266482829530567,1.243492247672837,-0.1732272803783417,0.07272856682538986,-0.2591074109077454,0.04984875023365021,0.07613265514373779,0.0661928653717041,2,0.6250493783819326,0.02080834205662951,-0.1637947373506685,0.7629229991698123,0.2365099191665649,-0.9469125270843506,-0.2177605777978897,-6.400527954101562,-50.04486846923828,6.605865478515625,2
1596230857.257936,108,0,103189.4506474167,-1.026302542831056,0.8236785158609569,1.234231351136019,-0.2904515564441681,-0.03089413046836853,-0.009856198914349079,0.1259028911590576,-0.07667660713195801,0.006498634815216064,2,0.6222656822613729,0.02407652052756565,-0.1650879000371339,0.7648213208247838,0.2422855347394943,-0.943894624710083,-0.2244114875793457,-6.469680786132812,-50.07474517822266,6.30487060546875,2
1596230857.30204,109,0,103189.4807464167,-1.003553254153752,0.7947553088061822,1.232455953346845,-0.1602949053049088,-0.3782857954502106,0.1183554381132126,-0.008123114705085754,0.05663859844207764,-0.07459831237792969,2,0.6191352886093046,0.02055833714045391,-0.1658289630710215,0.7673001231762331,0.2368899583816528,-0.9433068037033081,-0.2324976921081543,-6.671638488769531,-50.16659545898438,5.74859619140625,2
1596230857.318007,110,0,103189.5108444167,-0.9930142014142861,0.7772915497017916,1.22934043247395,-0.1655141860246658,-0.1879959255456924,0.008262928575277328,0.03883224725723267,0.04235637187957764,-0.02850788831710815,2,0.6167094647797478,0.01797263836003077,-0.1680025918366826,0.7688442438480341,0.2348538935184479,-0.9422681331634521,-0.2386928349733353,-6.673789978027344,-50.27429962158203,5.434173583984375,2
1596230857.361714,111,0,103189.5409434167,-0.9577102859263719,0.739920507947975,1.228820102596104,-0.1806049793958664,-0.1185404062271118,0.1680760234594345,-0.04813633859157562,-0.002269148826599121,0.01612323522567749,2,0.6131526722628344,0.01457124177233907,-0.1660263702421984,0.7721830494665152,0.226102352142334,-0.9420937895774841,-0.2476629614830017,-6.884620666503906,-50.22776794433594,5.244873046875,2
1596230857.378251,112,0,103189.5710414167,-0.9405765444737318,0.7217999377655101,1.223700034195401,-0.3794008493423462,0.05906175822019577,-0.003903196658939123,-0.03266303241252899,0.1160951852798462,0.09262764453887939,2,0.6100255152645254,0.01416520336984176,-0.1662361220147897,0.7746183884828681,0.2247617989778519,-0.9403644204139709,-0.2553364336490631,-6.825408935546875,-50.43617248535156,4.996246337890625,2
1596230857.420367,113,0,103189.6011404167,-0.9219695626581685,0.7084856699466159,1.219834781708005,-0.112055592238903,0.06407111883163452,0.1337765753269196,0.07723325490951538,-0.06105643510818481,-0.04777556657791138,2,0.6076364551779055,0.01567751661522979,-0.1640330934923128,0.7769331661969132,0.2237057387828827,-0.9390425682067871,-0.2610643208026886,-6.988212585449219,-50.54399871826172,4.487884521484375,2
1596230857.438412,114,0,103189.6312384167,-0.9055207769201118,0.6926131232273354,1.217071883626426,-0.2628534436225891,-0.07726136595010757,0.02679390646517277,-0.09239666163921356,0.01369094848632812,-0.00826561450958252,2,0.6053757633493645,0.01520490713865139,-0.1631251297646651,0.7788961494345583,0.2211900800466537,-0.9380890727043152,-0.2665779888629913,-7.154022216796875,-50.33660125732422,3.92529296875,2
1596230857.481981,115,0,103189.6613374167,-0.8925809037522972,0.6801220426153628,1.21208582185254,-0.1633616983890533,0.05192258208990097,0.002929132897406816,-0.06453220546245575,0.01046335697174072,-0.0002158284187316895,2,0.6027294744006988,0.01551088017646468,-0.1630542613681112,0.7809544509899611,0.2207818031311035,-0.9363502860069275,-0.2729531824588776,-7.011306762695312,-50.34299468994141,3.6456298828125,2
1596230857.498626,116,0,103189.6914364167,-0.8901705707185108,0.6798562314529591,1.208803752797134,-0.05947265028953552,0.0004773666150867939,-0.04901457205414772,0.03839661180973053,-0.007921695709228516,-0.04799753427505493,2,0.6016744694804114,0.01696217268792735,-0.1629781525423953,0.7817532640982496,0.2226400524377823,-0.9351930618286133,-0.2754002213478088,-7.163673400878906,-50.29786682128906,3.5068359375,2
1596230857.543154,117,0,103189.7215344167,-0.8803510138391607,0.6689963432127152,1.20741729360161,-0.1676831096410751,-0.08193428069353104,0.1201483234763145,-0.07309702038764954,0.003222525119781494,-0.02796149253845215,2,0.6002785095040517,0.01601315652791846,-0.1627300885528538,0.7828972439685129,0.2204400599002838,-0.934701144695282,-0.2788185775279999,-7.172454833984375,-50.40361022949219,3.36541748046875,2
1596230857.558813,118,0,103189.7516334167,-0.8682563558713072,0.6594331214759798,1.204615671624195,-0.1032222583889961,0.2145409286022186,-0.07057791948318481,-0.005587846040725708,0.03980672359466553,0.07460296154022217,2,0.59852615733097,0.01658713449149296,-0.1615157646451351,0.7844768621157973,0.2193672657012939,-0.9337016940116882,-0.2829826176166534,-7.419410705566406,-50.36270141601562,3.20245361328125,2
1596230857.602211,119,0,103189.7817314167,-0.8704365921198165,0.6668063802542141,1.200529217398381,-0.08185571432113647,0.02203130349516869,-0.02357516810297966,0.1030414253473282,0.005783557891845703,-0.02032101154327393,2,0.5978543022642224,0.01984014550715985,-0.1611235668858629,0.7849940595361566,0.2238056212663651,-0.9322307109832764,-0.2843531966209412,-7.198707580566406,-50.20785522460938,2.949432373046875,2
1596230857.619227,120,0,103189.8118304167,-0.859046189660322,0.6528525516043204,1.20106873798019,-0.02640853822231293,-0.2028135657310486,0.1676303595304489,-0.00861695408821106,-0.006133913993835449,-0.03637224435806274,2,0.5967955515376353,0.01762872757389244,-0.1606917023446126,0.7859403418568635,0.2195104360580444,-0.9324257969856262,-0.2870486080646515,-7.422660827636719,-50.31132507324219,2.9764404296875,2
1596230857.662168,121,0,103189.8419285,-0.8530826289164813,0.6417709854156305,1.204108072199734,0.1641984879970551,-0.2571218013763428,0.08068420737981796,0.018299400806427,-0.001042306423187256,0.004224538803100586,2,0.5968241462928703,0.0143117629977976,-0.1609541483551234,0.7859324141121128,0.2146188020706177,-0.9335197806358337,-0.2871922254562378,-7.478775024414062,-50.80601501464844,2.86138916015625,2
1596230857.6794,122,0,103189.8720275,-0.8485424121681407,0.634077042566403,1.205988604638196,-0.140058621764183,-0.08762745559215546,0.1146375238895416,0.02787180244922638,0.01192307472229004,0.03070050477981567,2,0.5967757911207627,0.01218722940128025,-0.1610357204107521,0.7859882637901602,0.2113624811172485,-0.9341923594474792,-0.287420243024826,-7.419914245605469,-50.44708251953125,3.124237060546875,2
1596230857.722192,123,0,103189.9021255,-0.8300934974360367,0.6182476637605627,1.203227381926102,-0.2948702275753021,0.1550874561071396,0.1196444854140282,-0.1022439450025558,0.01357603073120117,0.02747255563735962,2,0.5945064160268916,0.01211348726785105,-0.1591131658031837,0.7880979095487523,0.2082808166742325,-0.9332036972045898,-0.292830765247345,-7.789604187011719,-50.31387329101562,2.93792724609375,2
