loggingTime,loggingSample,identifierForVendor,motionTimestamp_sinceReboot,motionYaw,motionRoll,motionPitch,motionRotationRateX,motionRotationRateY,motionRotationRateZ,motionUserAccelerationX,motionUserAccelerationY,motionUserAccelerationZ,motionAttitudeReferenceFrame,motionQuaternionX,motionQuaternionY,motionQuaternionZ,motionQuaternionW,motionGravityX,motionGravityY,motionGravityZ,motionMagneticFieldX,motionMagneticFieldY,motionMagneticFieldZ,motionMagneticFieldCalibrationAccuracy
1596230839.383692,1,0,103171.5720516667,-0.7817836493259825,0.4183191733066248,1.226848502580677,-0.07332813739776611,0.05862988531589508,0.06340650469064713,0.06252077221870422,0.02569234371185303,0.005191922187805176,2,0.5853369228264523,-0.05758293118804142,-0.1942426645725987,0.7850697727744995,0.1369815766811371,-0.9414307475090027,-0.3081297874450684,-7.628768920898438,-50.33449554443359,4.364227294921875,2
1596230839.418595,2,0,103171.6021496667,-0.7743588329130587,0.4092569877221233,1.229022472823197,0.0987817794084549,-0.05429668352007866,0.1094279065728188,0.04074671864509583,0.01039618253707886,0.01167458295822144,2,0.5854312051659772,-0.05941570032317495,-0.1935793368843292,0.7850267575173353,0.1333689391613007,-0.9421616196632385,-0.3074801564216614,-7.688613891601562,-50.37736511230469,4.449066162109375,2
1596230839.439755,3,0,103171.6322486667,-0.771169182934093,0.4060025577298326,1.231250714677534,0.03512364625930786,0.0227894876152277,-0.0003458461724221706,-0.007797122001647949,0.01704084873199463,0.009805858135223389,2,0.5859885647975502,-0.06021509474936571,-0.1928728295885698,0.7847238363717433,0.1315381079912186,-0.9429060816764832,-0.3059830963611603,-7.721733093261719,-50.14741516113281,4.632537841796875,2
1596230839.483722,4,0,103171.6623476667,-0.7751922426591584,0.409182067651409,1.233448524800742,0.1169518530368805,-0.09222078323364258,-0.005167646333575249,-0.005703330039978027,-0.005443096160888672,-0.04769349098205566,2,0.5869389805944114,-0.0605982039955423,-0.1931155623281708,0.7839238323717628,0.131685346364975,-0.9436358213424683,-0.3036609888076782,-8.048805236816406,-50.28941345214844,4.667449951171875,2
1596230839.501914,5,0,103171.6924466667,-0.781708095092309,0.4119821957514664,1.237179219159291,0.1843476295471191,-0.1571583598852158,-0.01098620891571045,0.03304257988929749,0.03916734457015991,-0.01961749792098999,2,0.5883038345210057,-0.06218467647233247,-0.1941564127251194,0.7825182306949255,0.1311246454715729,-0.94486403465271,-0.3000633418560028,-7.807113647460938,-50.12837219238281,4.727447509765625,2
1596230839.542809,6,0,103171.7225446667,-0.7893688160852972,0.4120494073777864,1.243011184160772,0.250814288854599,-0.3328226804733276,0.07449865341186523,-0.06231844425201416,-0.05380767583847046,-0.0373992919921875,2,0.5900789701415519,-0.06562447308992303,-0.1960466613106024,0.7804267398831232,0.128935843706131,-0.9467577338218689,-0.2950004637241364,-7.682609558105469,-50.25895690917969,5.26910400390625,2
1596230839.560301,7,0,103171.7526436667,-0.7936565962853244,0.4062257873173731,1.250072077440428,0.1991555392742157,-0.2480556666851044,0.03848537802696228,-0.102159321308136,0.06018269062042236,-0.07530117034912109,2,0.5917876420925106,-0.0706289491822121,-0.1981228900190561,0.7781684306558569,0.1245709210634232,-0.9490073323249817,-0.2895978689193726,-7.797103881835938,-50.19633483886719,5.3709716796875,2
1596230839.602462,8,0,103171.7827426667,-0.8119607244966236,0.4200638923080038,1.257187162878256,0.4054054021835327,-0.05969215929508209,-0.1841093450784683,-0.03790891170501709,0.0429617166519165,-0.09151244163513184,2,0.5949393449855702,-0.07218129255760777,-0.1997836379226822,0.775192537206177,0.1258094906806946,-0.9512263536453247,-0.2816740870475769,-7.80712890625,-50.20361328125,6.00518798828125,2
1596230839.620358,9,0,103171.81284175,-0.8365340537500576,0.4429266473791675,1.265133172720841,0.2864490449428558,0.0154114980250597,-0.0500071719288826,-0.03051018714904785,-0.02295809984207153,-0.01163721084594727,2,0.5990130855364255,-0.07238961645612357,-0.2009166076285981,0.7717352693904842,0.1289721131324768,-0.9536476135253906,-0.2718861401081085,-7.483375549316406,-50.07619476318359,6.435089111328125,2
1596230839.663734,10,0,103171.84293975,-0.862545647455024,0.4692823086725674,1.274138530333251,0.4636286199092865,0.04510505497455597,-0.1374489367008209,0.03982281684875488,0.06400847434997559,-0.05878102779388428,2,0.6036922032069636,-0.07207053635431418,-0.2011863501946189,0.768040086492174,0.1322031468153,-0.9563188552856445,-0.2607231140136719,-7.561492919921875,-50.07183837890625,6.972625732421875,2
1596230839.680573,11,0,103171.87303875,-0.8897988713218639,0.4955927452708875,1.286720585568599,0.5277209281921387,-0.06046805903315544,0.07681220769882202,0.08831891417503357,0.00775444507598877,-0.08213663101196289,2,0.6094043336525906,-0.07315355262514378,-0.2010020628810993,0.7634611567474048,0.133283257484436,-0.95992112159729,-0.2465498298406601,-7.284393310546875,-50.06110382080078,7.386566162109375,2
1596230839.724193,12,0,103171.90313775,-0.9112246641291178,0.517201130828996,1.302141234918629,0.5251210927963257,0.1144358739256859,0.0621165856719017,-0.05399248003959656,0.03223824501037598,-0.06650972366333008,2,0.6156267870761217,-0.07513250621019732,-0.19919174720867,0.7587366430063592,0.1312439739704132,-0.9641287326812744,-0.2307175248861313,-7.597869873046875,-49.88350677490234,8.523101806640625,2
1596230839.740778,13,0,103171.93323675,-0.9453337537193743,0.5587951327368083,1.315538344723156,0.5441818833351135,0.3793293237686157,-0.1073358282446861,-0.1174241900444031,0.02808010578155518,-5.382299423217773e-05,2,0.6225703734541668,-0.07322325534490454,-0.1961931933656972,0.7540243000131441,0.1338639110326767,-0.9675981998443604,-0.2140889763832092,-7.599449157714844,-49.90049743652344,8.863983154296875,2
1596230839.781649,14,0,103171.96333575,-0.9923299507080091,0.6153222578494946,1.327103833049152,0.5496758818626404,0.4075395166873932,-0.1169903203845024,-0.03398245573043823,0.02851855754852295,-0.07795381546020508,2,0.629789135457911,-0.0696402627107226,-0.1934038312896461,0.7490731414470998,0.1392759680747986,-0.9704536199569702,-0.1970317512750626,-7.349197387695312,-49.43871307373047,9.54498291015625,2
1596230839.801131,15,0,103171.99343375,-1.049364306677493,0.6874216841144443,1.339069625761114,0.5620324015617371,0.6394005417823792,-0.1167406588792801,-0.06420576572418213,0.08540582656860352,-0.04549276828765869,2,0.6380843482332748,-0.06402041836890282,-0.1888103675375462,0.7437072072586455,0.1457289904356003,-0.9732713103294373,-0.1774995028972626,-7.231010437011719,-49.41901397705078,10.05303955078125,2
1596230839.844801,16,0,103172.02353275,-1.115210241909128,0.7724015623206715,1.347449931972554,0.6374388337135315,0.7887964844703674,-0.2458902597427368,-0.1209441423416138,-0.01611661911010742,-0.06775391101837158,2,0.6461720005629795,-0.05604505658697123,-0.1836697282321069,0.7386378104726329,0.1545704752206802,-0.9751617312431335,-0.1586413979530334,-7.635002136230469,-49.20340728759766,11.22512817382812,2
1596230839.861053,17,0,103172.05363175,-1.217097226400004,0.9020744779059521,1.358141384376311,0.8103629350662231,1.180541157722473,-0.1746318340301514,-0.1183434426784515,0.02846378087997437,0.2602897882461548,2,0.6576958784828059,-0.04484205591567572,-0.1757400095915256,0.7311228215068621,0.1655968576669693,-0.97747403383255,-0.1308506429195404,-7.399009704589844,-49.03891754150391,12.48513793945312,2
1596230839.898311,18,0,103172.08373075,-1.299169887907598,1.020569655398217,1.36348107206555,0.4352656900882721,1.216996192932129,-0.2402253150939941,-0.02158501744270325,0.01794964075088501,0.1248074173927307,2,0.6672719061145536,-0.03058004780362716,-0.1647295768294548,0.7257252744251612,0.1754534095525742,-0.9785870313644409,-0.1076261252164841,-7.446060180664062,-49.01363372802734,12.83267211914062,2
1596230839.921517,19,0,103172.11382875,-1.391160372787928,1.138101944712935,1.364662754794389,0.6341444849967957,0.5912107229232788,-0.2181747704744339,0.1869983077049255,-0.025551438331604,-0.1356664896011353,2,0.6758044706537352,-0.01939060512732971,-0.1581246208834578,0.7196588477632255,0.1858134120702744,-0.9788296222686768,-0.08582464605569839,-7.525184631347656,-48.50408172607422,13.7691650390625,2
1596230839.963491,20,0,103172.14392775,-1.488628247281367,1.242314902076321,1.369411340527493,0.8148103356361389,-0.02170551009476185,-0.01657308265566826,0.1516325771808624,0.02054297924041748,-0.1863222718238831,2,0.6837043663537699,-0.01683804872072689,-0.1560118655609627,0.7126885981945581,0.1893314123153687,-0.9797905087471008,-0.06452964246273041,-7.535392761230469,-48.63334655761719,14.05502319335938,2
1596230839.984058,21,0,103172.17402675,-1.605415841647049,1.351061779615241,1.374379609954072,0.6932076215744019,-0.3723425269126892,-0.06523456424474716,0.03439655900001526,0.0145343542098999,0.03582972288131714,2,0.6916083809855119,-0.02021818673352202,-0.1582885516332089,0.7044243423038384,0.1904630064964294,-0.9807721972465515,-0.04253814369440079,-7.336715698242188,-48.09552764892578,15.51318359375,2
1596230840.022445,22,0,103172.20412575,-1.706328596589537,1.436256914524426,1.375878890651656,0.5872629880905151,-0.4605522751808167,-0.09793466329574585,-0.07491451501846313,0.008085489273071289,0.1071175336837769,2,0.6973788768245237,-0.0259384175470484,-0.163547787287343,0.6973105689375586,0.1919352859258652,-0.9810636639595032,-0.02597980201244354,-7.193130493164062,-47.85853576660156,15.94747924804688,2
1596230840.041684,23,0,103172.23422375,-1.783514231999836,1.498966680242857,1.373274828940621,0.4293361604213715,-0.2864019274711609,-0.1518826633691788,-0.08672961592674255,0.003054141998291016,0.1170457601547241,2,0.7014588205066266,-0.03022730368151519,-0.1693229330351917,0.6916440350020086,0.195733055472374,-0.9805559515953064,-0.01408366672694683,-6.794921875,-47.62934112548828,17.34521484375,2
1596230840.084889,24,0,103172.26432275,-1.84032707931764,1.553846082139292,1.368513106235969,0.2912751734256744,0.1925651431083679,-0.2568244338035583,-0.1667885780334473,0.01140344142913818,0.02563881874084473,2,0.7052810662457989,-0.02959725761444437,-0.1712516567723559,0.687295679225474,0.2008769661188126,-0.9796104431152344,-0.003405239898711443,-6.6556396484375,-47.40688323974609,17.66326904296875,2
1596230840.101901,25,0,103172.29442175,-1.87726708395397,1.599582391398354,1.358376180883504,0.2272913157939911,0.2715496420860291,-0.3383660018444061,0.00165092945098877,0.005473971366882324,0.1299262046813965,2,0.7088627748454568,-0.02340006955784632,-0.1712194788977386,0.6838491782897526,0.2107379883527756,-0.9775235652923584,0.006067993585020304,-6.16729736328125,-47.53242492675781,18.1036376953125,2
1596230840.14203,26,0,103172.32452075,-1.90202260575844,1.621674896549854,1.349616447494009,0.244713231921196,-0.3419954180717468,-0.2456719279289246,0.09330534934997559,0.003624975681304932,-0.02483010292053223,2,0.7107131574447241,-0.02157052152070854,-0.1748096624598454,0.6810749204383142,0.219096764922142,-0.975639283657074,0.0111569594591856,-6.0380859375,-47.19397735595703,18.21487426757812,2
1596230840.162479,27,0,103172.35461875,-1.936373252668738,1.642361185907211,1.34309937614942,0.2139117419719696,-0.4183394610881805,-0.1310521960258484,0.1067546308040619,0.0241578221321106,0.05309474468231201,2,0.7123698760609776,-0.02448646405079133,-0.1813224156572776,0.6775335388704831,0.2251564562320709,-0.9741888642311096,0.01614085398614407,-5.009208679199219,-47.32335662841797,18.725830078125,2
1596230840.200494,28,0,103172.38471775,-1.952859477431496,1.649320275918544,1.340830113354801,0.05125745385885239,-0.3152787387371063,-0.02995993569493294,-0.002720385789871216,-0.03387415409088135,0.0749819278717041,2,0.7128812449638754,-0.02721544977672716,-0.1851842688359794,0.6758449303423826,0.2272419333457947,-0.9736741185188293,0.01788070052862167,-4.951164245605469,-47.10053253173828,18.72021484375,2
1596230840.222329,29,0,103172.41481675,-1.952760900996333,1.644018059476577,1.339642920599093,-0.03612511977553368,-0.07594979554414749,-0.04186799377202988,0.0003671348094940186,0.02816766500473022,0.06453657150268555,2,0.7124355913782551,-0.02855840913512764,-0.187438945229225,0.6756378346323532,0.2284860610961914,-0.9734027981758118,0.01676010899245739,-4.819732666015625,-47.02122497558594,19.01950073242188,2
1596230840.264362,30,0,103172.44491575,-1.946429750892386,1.633414939850294,1.337779072584051,-0.1470271348953247,-0.1464931666851044,-0.06168589740991592,0.03078994154930115,-0.01277875900268555,0.1323076486587524,2,0.7115969462333974,-0.02923701283479274,-0.1897009452399806,0.6758611915187525,0.2304608970880508,-0.9729741215705872,0.01445003319531679,-4.748428344726562,-47.11002349853516,18.86892700195312,2
1596230840.283768,31,0,103172.47501375,-1.915116123500035,1.606896573235557,1.340009540916525,-0.2902512550354004,0.5515437722206116,0.1821653991937637,-0.09375101327896118,0.03811013698577881,0.1506719589233398,2,0.7094723318258958,-0.02787364970062095,-0.1877650628968357,0.6786870225831284,0.2285932600498199,-0.9734867215156555,0.008255859836935997,-4.723014831542969,-47.03855895996094,18.94424438476562,2
1596230840.324662,32,0,103172.50511275,-1.876048361233016,1.594477331763011,1.342217853801331,-0.3815903067588806,0.8739784955978394,-0.1335309147834778,-0.08457863330841064,0.01678454875946045,0.1725382804870605,2,0.7087459434509044,-0.01902393850811981,-0.1781251391429932,0.6823405572123064,0.2265293300151825,-0.9739894866943359,0.005365445278584957,-5.073257446289062,-47.5533447265625,18.06048583984375,2
1596230840.342843,33,0,103172.53521175,-1.812395066280597,1.558551199549962,1.339250640244173,-0.4746681451797485,0.9351854920387268,0.09516730159521103,0.1725622117519379,0.004822134971618652,0.009500741958618164,2,0.7060699349586409,-0.007763000483776372,-0.1700518309565441,0.6873771118740442,0.2294647544622421,-0.9733128547668457,-0.002809965517371893,-5.432022094726562,-47.62767791748047,17.68740844726562,2
1596230840.383904,34,0,103172.56531075,-1.747737044192066,1.524719229789069,1.345570713922802,-0.4999492466449738,0.9214215278625488,0.1871404498815536,-0.08084619045257568,0.000810086727142334,0.04417967796325684,2,0.7034596709827569,0.001103740447401136,-0.1574777218566676,0.6930684272868607,0.2230883836746216,-0.9747437238693237,-0.01028654631227255,-6.349960327148438,-47.85093688964844,16.83285522460938,2
1596230840.402977,35,0,103172.59540875,-1.676536970627594,1.483998559189224,1.341983629222763,-0.5917602181434631,1.044419884681702,-0.3792987465858459,-0.4074026346206665,-0.03026634454727173,0.1316265463829041,2,0.6999960924043301,0.01319395523773118,-0.1482403214956163,0.6984668556508553,0.2259663790464401,-0.9739363789558411,-0.01966278068721294,-6.7008056640625,-48.19053649902344,16.27508544921875,2
1596230840.442364,36,0,103172.62550775,-1.605091755317886,1.442709181579536,1.320860269117195,-0.6619436144828796,0.7803632616996765,-0.861281156539917,-0.3284154534339905,-0.04582619667053223,-0.0723114013671875,2,0.6951496573093132,0.03113825375492946,-0.1449395253113299,0.7034129676014164,0.2453154325485229,-0.9689282178878784,-0.03159472718834877,-6.33447265625,-48.41857147216797,15.07504272460938,2
1596230840.463233,37,0,103172.65560675,-1.520651734303362,1.383137301695142,1.282980972310077,-1.181705594062805,0.4899766743183136,-1.499963164329529,-0.8586972951889038,-0.3896600604057312,0.2120699882507324,2,0.6861149226871883,0.05261292189857478,-0.1487693765417572,0.710173065417436,0.2788743376731873,-0.9588662981987,-0.05295638740062714,-5.701271057128906,-48.62100219726562,14.25656127929688,2
1596230840.500559,38,0,103172.68570575,-1.445112368368757,1.319124057397189,1.208312133184791,-1.655896544456482,0.4667277634143829,-3.16501784324646,-1.34207558631897,-0.5251021981239319,0.1659476161003113,2,0.6702393714003719,0.08140982369748177,-0.168979876388345,0.718050971287996,0.3434267342090607,-0.9350188374519348,-0.08830325305461884,-2.361091613769531,-49.30895233154297,11.82040405273438,2
1596230840.52322,39,0,103172.71580375,-1.343587330574798,1.297209460488452,1.056129496117413,-3.912141084671021,4.611757755279541,-5.534502029418945,-1.800796031951904,-2.270529508590698,-0.169129490852356,2,0.6390470971850176,0.1584924731300782,-0.1902038967787115,0.7282315713456498,0.4739369451999664,-0.8704567551612854,-0.1329978853464127,0.9539642333984375,-49.40688323974609,9.889556884765625,2
1596230840.563026,40,0,103172.74590275,-1.186518954467988,1.308062164891818,0.8634579715985941,-5.631895542144775,5.598106384277344,-5.525045871734619,-0.836122989654541,-1.06453812122345,0.9869468808174133,2,0.5842660402444085,0.272484678352868,-0.1919094931189242,0.7399702114387003,0.6275134682655334,-0.760094165802002,-0.1687705814838409,10.03568267822266,-48.87862396240234,3.8306884765625,2
1596230840.58391,41,0,103172.77600175,-0.991189950064652,1.390010838819954,0.6649175907625894,-6.375138282775879,8.30052375793457,-4.76828145980835,-0.5051379203796387,-0.3132737874984741,1.30164623260498,2,0.5083731531462714,0.41328858047457,-0.1613932734402489,0.7380388505304308,0.7741420865058899,-0.6169942617416382,-0.1414985656738281,14.79984283447266,-47.60741424560547,0.37249755859375,2
1596230840.622899,42,0,103172.8060995417,-0.777122277280106,1.528022107641564,0.5135747751467592,-6.191121101379395,8.166650772094727,-4.104254245758057,-0.1985371112823486,0.4155600070953369,0.9101463556289673,2,0.4232242970376401,0.5497807201046566,-0.1019828098035839,0.7128966317057099,0.8701968789100647,-0.4912939965724945,-0.03724470734596252,23.86945343017578,-42.76141357421875,-3.539398193359375,2
1596230840.643857,43,0,103172.8361985417,-0.58606764743108,1.637875314572321,0.3971615599166728,-5.239605903625488,4.661018848419189,-3.729927539825439,0.4313358068466187,0.5479434132575989,0.8583431243896484,2,0.3358382838352266,0.6466206924585851,-0.05545855836473157,0.6826555005030324,0.920088529586792,-0.3868024051189423,0.06181134656071663,27.78587341308594,-39.64664459228516,-4.0360107421875,2
1596230840.68394,44,0,103172.8662975417,-0.4154581699081235,1.687657725999345,0.321820965999581,-4.929310321807861,2.233132362365723,-2.146235942840576,0.1308386325836182,0.3111676871776581,0.3897759914398193,2,0.2563013762463106,0.6997245473520893,-0.01815727909561893,0.666607328336883,0.9421904683113098,-0.3162945508956909,0.1106096729636192,33.93074035644531,-34.13912963867188,-5.663116455078125,2
1596230840.703917,45,0,103172.8963965417,-0.2626222330122384,1.644877607016083,0.2955268298017484,-4.50370454788208,-1.841197967529297,-0.6402812600135803,-0.06580513715744019,0.5928558111190796,0.5724618434906006,2,0.1942195672089086,0.7054652600759127,0.01883832536459681,0.6813533703989932,0.9540247321128845,-0.2912438809871674,0.07080494612455368,35.52412414550781,-31.823486328125,-7.104156494140625,2
1596230840.741704,46,0,103172.9264945417,-0.1231143282419749,1.525573988313586,0.3043720333488026,-4.634496688842773,-2.894167423248291,1.122604250907898,-0.1021499633789062,0.8670166730880737,1.014912247657776,2,0.1513996306967514,0.6749175154266652,0.06058905909396989,0.7196480483757935,0.9530598521232605,-0.2996941208839417,-0.04312899708747864,35.29808044433594,-28.75857543945312,-14.66293334960938,2
1596230840.763945,47,0,103172.9565935417,0.0292903573176008,1.370161875203247,0.3462286671446321,-4.236633777618408,-4.515789031982422,2.656208992004395,-0.5410922765731812,0.6832215785980225,0.3660971522331238,2,0.1242436071839894,0.6251648033136525,0.1201485023297291,0.7611154601964414,0.921789824962616,-0.3393526971340179,-0.1874649822711945,33.48825073242188,-28.2259521484375,-19.1490478515625,2
1596230840.800701,48,0,103172.9866925417,0.1541084558915567,1.190260884171378,0.4104844961656999,-2.180154323577881,-3.217115163803101,3.689353227615356,-0.2200054526329041,0.4048457145690918,0.252379298210144,2,0.1260151795476727,0.560213032742531,0.1763228406252899,0.7994946198204662,0.851335883140564,-0.3990536332130432,-0.3405630588531494,26.51538848876953,-27.45841217041016,-28.587158203125,2
1596230840.824242,49,0,103173.0167915417,0.2697618660434767,1.135318027175864,0.5080959264048762,-1.525973916053772,3.621961355209351,4.93947172164917,-0.7923412322998047,0.5714816451072693,0.359856128692627,2,0.1400024550820317,0.5441714415616761,0.2436422712421348,0.7905156417025999,0.7921310663223267,-0.4865145981311798,-0.3685535192489624,20.51065063476562,-28.64470672607422,-31.87890625,2
1596230840.863493,50,0,103173.0468895417,0.3649856522834518,1.279722784232767,0.6303833469309623,-0.427998960018158,7.965615749359131,4.350773811340332,-1.076438665390015,0.6808263063430786,0.5435731410980225,2,0.1415232406160171,0.6033733679007324,0.3204306210778211,0.716404820127601,0.7738224267959595,-0.5894544720649719,-0.2318235039710999,21.23212432861328,-29.95056915283203,-30.41506958007812,2
1596230840.885981,51,0,103173.0769885417,0.4320449423662134,1.455495526927424,0.7439940924515566,-2.457920789718628,6.374963283538818,3.752528190612793,-0.7209442257881165,-0.1249186992645264,0.915063738822937,2,0.1322619202367076,0.6634631177631695,0.3852615724655702,0.6276120472391553,0.7308840155601501,-0.677232027053833,-0.08464695513248444,24.35883331298828,-33.20014190673828,-24.12637329101562,2
1596230840.923659,52,0,103173.1070875417,0.5752890961353371,1.525343544245411,0.8167970413418906,-3.468339681625366,4.482426166534424,1.729172587394714,1.115430355072021,-1.826343059539795,0.3601288795471191,2,0.09545954560795508,0.689445622187995,0.4513344364918274,0.5584347448365345,0.6838524341583252,-0.728956937789917,-0.03110441751778126,25.22601318359375,-33.60653686523438,-23.01556396484375,2
1596230840.944827,53,0,103173.1371855417,0.5934756076594774,1.666788789414804,0.8389962460897206,0.7662107348442078,15.96285343170166,-0.727921187877655,4.285834789276123,0.1619628667831421,3.692763805389404,2,0.06421329129326439,0.7265665626389588,0.4678707255588356,0.4990736776735125,0.6651334762573242,-0.7439727783203125,0.06404463201761246,27.57391357421875,-33.64219665527344,-19.52194213867188,2
1596230840.983989,54,0,103173.1672845417,0.6235939361838511,1.664573559304745,0.878777848553531,2.203478097915649,-11.20196437835693,2.103844881057739,0.9129986166954041,1.889097452163696,-3.108730792999268,2,0.0672571894125345,0.7248116285598663,0.4862916198619268,0.4833681496756773,0.6352884769439697,-0.7699596285820007,0.05975085124373436,30.09617614746094,-33.52424621582031,-15.68109130859375,2
1596230841.005357,55,0,103173.1973835417,0.4403471555685042,1.600393445830638,0.9217660097437814,2.323754787445068,-3.216833353042603,1.977425098419189,-0.5800308585166931,-0.133415699005127,1.230996370315552,2,0.1619616868562791,0.6947744657574391,0.4476503618852981,0.5391342374318064,0.6041489839553833,-0.7966702580451965,0.01788629218935966,22.46792602539062,-37.30748748779297,-20.15567016601562,2
1596230841.041886,56,0,103173.2274825417,0.4234835789856372,1.548027059636218,1.014679063784697,-1.023784875869751,2.381137132644653,3.202004432678223,-1.929039359092712,-1.434405922889709,1.76027512550354,2,0.2112775588569975,0.6703375670851235,0.4633916908008251,0.5397010919549049,0.5277553200721741,-0.8493111729621887,-0.01201867870986462,19.06247711181641,-39.12177276611328,-20.753173828125,2
1596230841.067488,57,0,103173.2575805417,0.4310508881847684,1.627177623130433,1.039858586521841,0.9995237588882446,3.577603578567505,-1.495351314544678,-1.294546842575073,0.4544200301170349,0.3699686527252197,2,0.1984806629933676,0.689109549897872,0.4802006582921604,0.5051144787519205,0.5055373311042786,-0.8623326420783997,0.02853308990597725,16.69454193115234,-40.23444366455078,-20.2916259765625,2
1596230841.101814,58,0,103173.2876795417,0.4251390086126045,1.744182549177343,0.952570346463366,-0.3377288579940796,3.276091575622559,-3.679500818252563,0.3041239380836487,0.4605729579925537,0.5127694606781006,2,0.1447113920955607,0.7273607897499232,0.4637462585356188,0.4847104692050699,0.570900022983551,-0.814907968044281,0.09999021142721176,19.44985198974609,-39.93851470947266,-18.2841796875,2
1596230841.12528,59,0,103173.3177785417,0.455377978638818,1.797832526760004,0.8741392989669897,0.1922215670347214,0.9345851540565491,-0.7859473824501038,1.884997129440308,-0.1125381588935852,-0.3799693584442139,2,0.09661956087312257,0.7502534012631855,0.4500335643620269,0.4746093121644895,0.6251904368400574,-0.7669914960861206,0.144431009888649,26.79045104980469,-36.87075042724609,-15.18011474609375,2
1596230841.16457,60,0,103173.3478775417,0.4243243374918105,1.79228735904796,0.9187109395106594,0.645505964756012,-2.33987283706665,3.3033447265625,0.7634873390197754,-0.1285927295684814,-0.5858324766159058,2,0.1233351079887438,0.7425938533596323,0.4563708177212425,0.4744135474969464,0.5920200943946838,-0.7948200106620789,0.1333143562078476,27.11029052734375,-36.78926086425781,-14.98812866210938,2
1596230841.185648,61,0,103173.3779755417,0.3532546296687933,1.768365865654291,1.01309966343824,0.3202268183231354,-2.687324523925781,2.67223334312439,-0.6292524933815002,-0.2267560362815857,0.01816284656524658,2,0.1839415684345116,0.7197959306279655,0.4667853843599443,0.4797608400712043,0.518937349319458,-0.8484763503074646,0.1038813665509224,21.33943939208984,-39.78701019287109,-16.03240966796875,2
1596230841.223261,62,0,103173.4080745417,0.3471329153645103,1.728832649529387,1.043555670225144,-0.2205216288566589,-0.1213861778378487,-0.7218831181526184,-1.119297504425049,0.07551372051239014,0.3755347728729248,2,0.2047654072420321,0.7054529432932845,0.4706398248365702,0.4887793976686507,0.4968802332878113,-0.8641987442970276,0.07918545603752136,18.61238861083984,-41.17467498779297,-17.04483032226562,2
1596230841.245691,63,0,103173.4381735417,0.3650697984147664,1.734382846207621,0.9927312841117564,0.02377912402153015,1.303364753723145,-2.163436651229858,-0.2296731472015381,0.1137619614601135,0.119063138961792,2,0.1812799779157693,0.7152836373596521,0.4603691603263352,0.4935250801041718,0.5391094088554382,-0.837521493434906,0.08898622542619705,19.21517944335938,-40.59198760986328,-17.17770385742188,2
1596230841.284609,64,0,103173.4682715417,0.3796747524103226,1.75692812088692,0.9498442364087338,-0.1082237437367439,0.5519959330558777,-0.3609771430492401,0.5449514389038086,-0.3010568618774414,-0.1105391979217529,2,0.1574690830271948,0.7273499727518191,0.4527862767232915,0.4910701035015423,0.5717599987983704,-0.8133248686790466,0.1076689884066582,22.47896575927734,-39.07673645019531,-16.66290283203125,2
1596230841.306,65,0,103173.4983705417,0.382257721129092,1.753659781970481,0.9693025919604767,-0.1985853314399719,-0.3763782382011414,1.157344818115234,0.3171813488006592,-0.1333192586898804,-0.04427444934844971,2,0.1633457328166535,0.7244095287340377,0.4591317511212324,0.4875928947442784,0.5564394593238831,-0.8244912624359131,0.1029019877314568,22.38661956787109,-39.16526031494141,-16.47769165039062,2
1596230841.346715,66,0,103173.5284695417,0.383421554696396,1.732182133272146,0.9948393878368145,-0.1813790947198868,-0.8815466165542603,0.2548020482063293,-0.1935258507728577,0.03518497943878174,0.03177869319915771,2,0.1758826903873493,0.7161166943217272,0.4653166481116919,0.4896145876206608,0.5375600457191467,-0.8386715054512024,0.08751568198204041,20.47425842285156,-40.11061859130859,-17.22128295898438,2
1596230841.365965,67,0,103173.5585685417,0.4025288035404678,1.698644849817042,0.9844185214900847,-0.3602370619773865,-0.4887141585350037,-0.8634666204452515,-0.0890459418296814,-0.0865815281867981,0.02283716201782227,2,0.1735509919046573,0.7107433269382349,0.4640258536075403,0.4994034078769668,0.5488309860229492,-0.8329504728317261,0.0705520436167717,20.2967529296875,-39.85842132568359,-17.6573486328125,2
1596230841.405871,68,0,103173.5886665417,0.4230471819078183,1.667626335165382,0.9612552605494307,-0.3403077721595764,-0.7171411514282227,-0.4302263557910919,0.05347520112991333,-0.3254929780960083,-0.03882181644439697,2,0.1659367963023383,0.7072049434177113,0.4598415363934384,0.5107559867916304,0.5698090791702271,-0.8199108242988586,0.05534770339727402,21.14864349365234,-38.92247009277344,-18.55661010742188,2
1596230841.426269,69,0,103173.6187655417,0.4433248960687795,1.628876031601557,0.9658317919789393,-0.2766377627849579,-0.3885663449764252,0.4275812208652496,0.0304228663444519,0.03001368045806885,0.06458485126495361,2,0.1692642886602235,0.6984670541202399,0.4631120816981407,0.5186717378315526,0.5677735805511475,-0.8225222826004028,0.03301325067877769,21.10707092285156,-38.47711944580078,-19.279296875,2
1596230841.465733,70,0,103173.6488645417,0.4541863505785327,1.60631538953419,0.9736942904828491,-0.2846741378307343,-0.7124620079994202,0.01353709306567907,0.004935622215270996,0.07759636640548706,0.04651546478271484,2,0.17336391844083,0.6927684426558236,0.4661777412966807,0.5222021003355302,0.5618934631347656,-0.8269684314727783,0.01996632665395737,20.04492950439453,-38.87205505371094,-20.04281616210938,2
1596230841.4864,71,0,103173.6789635417,0.463341807455975,1.568440020998864,0.9717047416086011,-0.08119800686836243,-1.010190844535828,-0.01269749738276005,0.09850740432739258,0.02146804332733154,0.3253817558288574,2,0.1783518807030414,0.6837589167356555,0.4647276294415777,0.5335656741249561,0.5638904571533203,-0.8258482217788696,-0.001328700920566916,19.8875732421875,-38.56977081298828,-20.70626831054688,2
1596230841.527037,72,0,103173.7090615417,0.4742302411818929,1.537584915762862,0.9802600436179726,-0.297415167093277,-0.5581554770469666,0.6517411470413208,0.3614782094955444,0.1401126384735107,0.5068863034248352,2,0.1847872562017976,0.6757286494840795,0.4670907585338375,0.5395095467232576,0.5564993023872375,-0.8306421637535095,-0.01848892495036125,18.78849792480469,-38.61576843261719,-21.56805419921875,2
1596230841.546606,73,0,103173.7391605417,0.4871240159711304,1.50321789032151,1.008406724206714,-0.05887219682335854,-1.072016596794128,1.129373788833618,0.0861668586730957,0.1330665349960327,0.5915082693099976,2,0.1983614852040847,0.6653192589026331,0.4744037063853813,0.5412429847055361,0.5319918990135193,-0.8459833860397339,-0.03600601106882095,18.09393310546875,-38.793212890625,-21.96444702148438,2
1596230841.588058,74,0,103173.7692595417,0.485611042546404,1.462880809226363,1.039672732168804,0.3277625143527985,-1.931426763534546,0.8187366724014282,-0.3321800827980042,0.2330564856529236,0.6390734910964966,2,0.2194580730187817,0.6515837971494294,0.477352472123541,0.5471847889292049,0.5035557746887207,-0.8622385263442993,-0.05455341935157776,15.36692047119141,-39.55160522460938,-22.755126953125,2
1596230841.607124,75,0,103173.7993575417,0.4318043592648083,1.396297083945408,1.051439480358458,1.682536244392395,-5.459875106811523,-0.4937295317649841,-0.1875975131988525,0.2955870032310486,0.2412221431732178,2,0.2563871311987647,0.625444798520811,0.4570371270416404,0.5781015243190291,0.4887843132019043,-0.8681385517120361,-0.08616888523101807,13.7288818359375,-40.07919311523438,-23.16244506835938,2
1596230841.642537,76,0,103173.829455625,0.2786532088344632,1.329023893057473,1.02476568691963,2.88032865524292,-7.332337379455566,-2.2331223487854,0.6422539949417114,0.1921789646148682,0.3245728015899658,2,0.3075546634572131,0.5858701768671216,0.3946849173970053,0.6374871465462375,0.5041950345039368,-0.8545925617218018,-0.124332532286644,9.330078125,-41.60608673095703,-23.48004150390625,2
1596230841.667049,77,0,103173.859554625,0.05786130684837083,1.291116209745957,0.9836505571934829,3.829385995864868,-7.556498050689697,-2.052171230316162,0.7936835885047913,0.1364070773124695,0.789030909538269,2,0.3617062883006084,0.5410222227988672,0.3043660271441757,0.6955750037841709,0.5324608683586121,-0.8325252532958984,-0.1529270261526108,7.667503356933594,-42.25470733642578,-22.5709228515625,2
1596230841.705528,78,0,103173.889653625,-0.1629046362141531,1.245191527839022,0.9666874773592231,3.369333028793335,-7.115242481231689,-1.794124960899353,0.1436108946800232,-0.2240554690361023,0.8383128643035889,2,0.4183009072602891,0.4839145499658272,0.2115896429826237,0.738972829323044,0.5381831526756287,-0.8230085968971252,-0.181702122092247,4.739875793457031,-45.01032257080078,-19.1318359375,2
1596230841.727224,79,0,103173.919751625,-0.3439910692525877,1.207962465146142,0.9278746641215159,2.702573537826538,-4.626484394073486,-3.152076482772827,-0.6670868396759033,-0.3308597803115845,0.166657567024231,2,0.4497973452216703,0.4373638812906336,0.1244017557198771,0.7687127005680051,0.5605031847953796,-0.8003475069999695,-0.2127903699874878,4.260391235351562,-46.48662567138672,-15.48587036132812,2
1596230841.765658,80,0,103173.949850625,-0.538412421151708,1.262840042554668,0.8595950097835322,3.256580591201782,-2.110721588134766,-3.430397748947144,-0.3976935148239136,0.3345841765403748,0.03710567951202393,2,0.4669498697160759,0.4278208177127676,0.04194785505118664,0.7727659706829988,0.6220356225967407,-0.7575782537460327,-0.1978543400764465,6.027244567871094,-46.99802398681641,-13.16314697265625,2
1596230841.78779,81,0,103173.979949625,-0.6959052270745398,1.327135558832474,0.8079211766746759,2.608525514602661,-1.530611276626587,-1.604957938194275,-0.004228472709655762,0.3078493475914001,-0.01175606250762939,2,0.4842109945548504,0.4268315672174519,-0.01940662490329048,0.7635297355190778,0.6705909967422485,-0.7228522896766663,-0.1667090505361557,10.50530242919922,-47.36782073974609,-8.575897216796875,2
1596230841.827534,82,0,103174.010047625,-0.8151821841011835,1.360638736232235,0.8023102547650937,2.77340292930603,-2.260694742202759,-0.228086993098259,0.1908120512962341,-0.09356904029846191,0.08723551034927368,2,0.5082379179938982,0.4113342874469585,-0.05817854304540579,0.7543960978186928,0.6797550320625305,-0.7189637422561646,-0.1449966430664062,11.099853515625,-47.45246124267578,-6.71136474609375,2
1596230841.847626,83,0,103174.040146625,-0.9348496948743126,1.353152463305991,0.8179086864935247,2.667591333389282,-4.092091083526611,0.09031945466995239,0.09972226619720459,-0.3338730335235596,0.1286133527755737,2,0.5356579242848045,0.3731618582443036,-0.1000897194231537,0.750868033859157,0.6676183342933655,-0.729717493057251,-0.1476416289806366,11.4306640625,-47.93417358398438,-3.24017333984375,2
1596230841.885718,84,0,103174.070245625,-1.039565615173547,1.291225380492723,0.8494058906473784,2.475365877151489,-4.872693538665771,0.8834635615348816,-0.1054903268814087,-0.06564575433731079,0.3949042558670044,2,0.5579535394767428,0.3123577868027597,-0.1462972655736346,0.7547961353424576,0.6347870826721191,-0.7508881688117981,-0.1822409182786942,10.9427490234375,-48.16100311279297,-1.948822021484375,2
1596230841.907925,85,0,103174.100344625,-1.131177104977249,1.216428084294719,0.9082878561556169,2.424370050430298,-4.550870895385742,1.420873761177063,-0.5970929265022278,-0.1032648086547852,0.2989509105682373,2,0.5791396802897673,0.240579844299117,-0.1835927503362112,0.7569755815631094,0.5768778324127197,-0.7884517908096313,-0.2134371399879456,8.978507995605469,-48.92873382568359,0.41644287109375,2
1596230841.944701,86,0,103174.130442625,-1.216694417419159,1.170781057431484,0.9671331726382615,2.092189311981201,-3.036308765411377,0.9817895889282227,-0.7009504437446594,-0.06533622741699219,0.3867777585983276,2,0.597569782532692,0.17993725456561,-0.2109325279132287,0.752356440937339,0.5228477120399475,-0.8232617378234863,-0.221065878868103,7.601448059082031,-49.33498382568359,1.570648193359375,2
1596230841.968147,87,0,103174.160541625,-1.284044651263913,1.155526744465714,1.021743031418347,1.641363739967346,-1.804968476295471,1.520434021949768,-0.5738571286201477,-0.1928386688232422,0.1876662373542786,2,0.6133113357578852,0.1362958319879969,-0.223708565408856,0.7451354696758494,0.4775237143039703,-0.8530189990997314,-0.2105453014373779,5.852241516113281,-49.58853912353516,4.44183349609375,2
1596230842.004748,88,0,103174.190640625,-1.320570900551122,1.142818841077883,1.089323233773041,1.153127431869507,-1.210106611251831,2.046345472335815,-0.4960505366325378,-0.1504344344139099,0.1027336120605469,2,0.6279265815621123,0.0980343259698673,-0.2199388227398005,0.7400839944736244,0.4213181436061859,-0.8863137364387512,-0.1921949535608292,4.392311096191406,-49.63465881347656,5.709716796875,2
1596230842.028075,89,0,103174.220738625,-1.320949495424339,1.092524583644768,1.158232866612107,0.9112979769706726,-1.579108715057373,1.631842136383057,-0.4360271692276001,-0.4969053864479065,-0.04894852638244629,2,0.6360364616498067,0.05646192085677759,-0.2142149010830893,0.7391761461200443,0.3559675812721252,-0.9160959720611572,-0.1845393478870392,0.7354583740234375,-50.00597381591797,7.827911376953125,2
1596230842.068157,90,0,103174.250837625,-1.33422280198723,1.095578650187263,1.189742562874921,0.2265422642230988,0.5851376056671143,0.4102519452571869,-0.4512034058570862,-0.6587857604026794,-0.1218796372413635,2,0.6427166268194343,0.04286741994135976,-0.2081678908044896,0.7360323809473727,0.330689549446106,-0.9282732605934143,-0.1701554507017136,-0.430511474609375,-49.84754943847656,8.333526611328125,2
1596230842.088445,91,0,103174.280936625,-1.320417439424322,1.106828951305411,1.200827146709109,0.403255969285965,1.907202839851379,0.1797725111246109,-0.7719447612762451,-0.3381823301315308,-0.22724848985672,2,0.6456110281236023,0.04776527827325333,-0.1959364286576986,0.7365552668464914,0.3233609795570374,-0.9323384761810303,-0.1618097573518753,-1.433090209960938,-49.89923858642578,9.069091796875,2
1596230842.122764,92,0,103174.311035625,-1.399679523772357,1.259703350458937,1.207959856512284,1.016065716743469,2.166074752807617,-0.3698135316371918,-0.3025127947330475,0.2629188299179077,0.4163330793380737,2,0.6633367384272623,0.07525205535267555,-0.1725263510214771,0.7242624402422337,0.3378905951976776,-0.9348938465118408,-0.108643002808094,-1.934707641601562,-50.10110473632812,9.484832763671875,2
1596230842.148573,93,0,103174.341133625,-1.444704310591986,1.331512074008907,1.196323118896085,0.2242137938737869,0.328886866569519,-0.5089665055274963,0.6438585519790649,-0.01739394664764404,-0.1077653765678406,2,0.6697233218453102,0.09013437965138907,-0.1687325155701245,0.7175482860994864,0.3553597331047058,-0.930700421333313,-0.0866929292678833,-1.861564636230469,-49.25975036621094,11.21649169921875,2
1596230842.185162,94,0,103174.371232625,-1.479389584406407,1.366412179028195,1.20558182019574,0.4602015912532806,-0.5239636301994324,1.028332948684692,0.644025981426239,-0.004937708377838135,-0.1814757585525513,2,0.6753194485236019,0.08774604859261938,-0.1662631288835501,0.7131625181040261,0.3497158288955688,-0.9340471625328064,-0.07248854637145996,-2.233978271484375,-49.43380737304688,11.76568603515625,2
1596230842.209019,95,0,103174.401331625,-1.500014557524874,1.355649630355723,1.247638562367969,0.5796430110931396,-1.150228142738342,1.241542816162109,-0.257285863161087,-0.122830331325531,0.2129371166229248,2,0.6798712672319007,0.06226407255828398,-0.1629283670549946,0.7122867033950362,0.3102403581142426,-0.9482373595237732,-0.067796491086483,-3.3070068359375,-49.20240020751953,12.19586181640625,2
1596230842.242064,96,0,103174.431430625,-1.511414985897217,1.34361628127978,1.266676497681528,-0.05874909088015556,-0.1783106029033661,-0.1328421384096146,-0.4625947773456573,0.02361154556274414,0.1864588260650635,2,0.6811949526091143,0.04743846711248201,-0.1645834255055814,0.7117830655474392,0.2917585968971252,-0.9541109204292297,-0.06744606047868729,-4.357406616210938,-48.95690155029297,12.7646484375,2
1596230842.26901,97,0,103174.461528625,-1.527160718914952,1.367263268595134,1.256915050557735,0.2512212097644806,0.4226548075675964,-0.2421405464410782,-0.1533388197422028,0.08029460906982422,0.02595627307891846,2,0.6825619904105995,0.05389774118560228,-0.1654538296019062,0.7098091982079873,0.3023792207241058,-0.9511423707008362,-0.06240832433104515,-3.913162231445312,-48.94651794433594,12.99920654296875,2
1596230842.307102,98,0,103174.491627625,-1.546106960594759,1.392500713690083,1.258728785139633,0.1262431442737579,0.176363006234169,0.1478822231292725,0.163901150226593,-0.05509525537490845,0.1045299768447876,2,0.6853239417157113,0.05572409685135479,-0.1629151320409048,0.7075904922996596,0.3021589517593384,-0.9517008066177368,-0.0544518381357193,-3.687408447265625,-49.08070373535156,13.03262329101562,2
1596230842.329184,99,0,103174.521726625,-1.546235385656627,1.394421929689958,1.263680689596797,-0.01818369887769222,-0.369667112827301,0.2607453465461731,0.1721342802047729,-0.0560530424118042,-0.002213716506958008,2,0.6859263893180819,0.05461821690344457,-0.1606015463764589,0.7076218835333626,0.2976197600364685,-0.9532095193862915,-0.0530436784029007,-4.124038696289062,-49.2271728515625,13.13723754882812,2
1596230842.367482,100,0,103174.551824625,-1.535480323171605,1.365868624827987,1.27380102477229,-0.1086630076169968,-0.3623632788658142,0.2997374534606934,-0.1143776476383209,0.07102245092391968,0.2543696165084839,2,0.6842747502555717,0.04462834140224142,-0.1630998667023356,0.7093480191808342,0.2865242958068848,-0.9562201499938965,-0.05955275520682335,-4.494361877441406,-48.78836822509766,13.35882568359375,2
1596230842.389431,101,0,103174.581923625,-1.522391240025293,1.351520243519915,1.277439218040581,0.03937656059861183,-0.07093426585197449,0.05859203264117241,-0.05083319544792175,0.01574486494064331,-0.07181137800216675,2,0.6831719106947161,0.0427307284180736,-0.1621120072682753,0.7107528997619895,0.2822427153587341,-0.9572784900665283,-0.06290045380592346,-4.447776794433594,-48.97847747802734,13.17782592773438,2
1596230842.425545,102,0,103174.612022625,-1.535972061911433,1.359314857731754,1.280028387912187,0.1539671868085861,-0.3217676877975464,0.05220416933298111,0.1322575211524963,-0.08967012166976929,0.1405626535415649,2,0.6843356200476658,0.03994571663825716,-0.1633827571979526,0.709503387918762,0.2803005278110504,-0.9580240249633789,-0.06017819792032242,-4.797637939453125,-49.00022888183594,13.2166748046875,2
1596230842.449535,103,0,103174.642121625,-1.525278477630935,1.327521467636408,1.285943023086402,-0.06994624435901642,-0.9447833299636841,0.4491173624992371,0.2438178658485413,0.1138598918914795,-0.08737033605575562,2,0.6820852727980301,0.03022890677077941,-0.1684228852341219,0.7109707577322434,0.272741287946701,-0.9597029089927673,-0.06769178807735443,-4.772872924804688,-49.07700347900391,13.37338256835938,2
1596230842.487181,104,0,103174.672219625,-1.507262705579161,1.288747029727808,1.306520801187629,-0.05358045175671577,-0.5495865941047668,0.8681915998458862,0.13941490650177,0.002969145774841309,0.07484269142150879,2,0.680745201654276,0.0153450976588021,-0.168207498303473,0.7127808707064993,0.2508882880210876,-0.9652820229530334,-0.07270099967718124,-5.312660217285156,-49.11301422119141,13.46353149414062,2
1596230842.510398,105,0,103174.702318625,-1.452351567675376,1.223717806510743,1.325694264694412,-0.3544745147228241,-0.287516325712204,0.5606206655502319,-0.1876679658889771,-0.05510687828063965,0.1527183055877686,2,0.6772840945158899,0.004055454504498596,-0.1641621790332843,0.7171614367403025,0.228185698390007,-0.9701125621795654,-0.08253961801528931,-5.930343627929688,-49.00025177001953,13.39010620117188,2
1596230842.548514,106,0,103174.732417625,-1.395071358125011,1.160520719730229,1.333947152320764,-0.2374477088451385,-0.2278002053499222,0.2962255775928497,-0.3142109215259552,0.119817316532135,-0.1068168878555298,2,0.6732018398852707,-0.002174212507735918,-0.1621392786263407,0.7214604918588265,0.2151677012443542,-0.9720821380615234,-0.09358911216259003,-6.745346069335938,-49.04878997802734,12.935546875,2
1596230842.570031,107,0,103174.762515625,-1.36639183391997,1.131708087533061,1.335308037709914,-0.1391979902982712,-0.07224476337432861,-0.04415887966752052,-0.2285538613796234,-0.04738569259643555,-0.08211517333984375,2,0.6711148691018292,-0.003407141923969931,-0.1610124488945464,0.7236491030830984,0.2111845463514328,-0.9724005460739136,-0.09918645024299622,-7.096389770507812,-49.13028717041016,12.80484008789062,2
1596230842.606401,108,0,103174.792614625,-1.351658075965368,1.112626619795092,1.328202432942252,-0.2833621799945831,-0.06869027018547058,-0.1752773523330688,0.02306246757507324,0.0391809344291687,0.05242723226547241,2,0.6684798755950531,-0.002989908166962013,-0.1643898687878717,0.7253285750439273,0.2154453098773956,-0.9707181453704834,-0.1062514334917068,-6.711219787597656,-48.98345184326172,12.18954467773438,2
1596230842.630177,109,0,103174.822714625,-1.319698182742933,1.080251305301728,1.323825385931716,-0.3091472387313843,-0.08240484446287155,0.0595233142375946,-0.1320407092571259,0.02484619617462158,0.05971324443817139,2,0.6651376018115517,-0.00263663623118765,-0.1649875414167683,0.7282608515228337,0.2156385183334351,-0.9696573615074158,-0.1151700392365456,-6.914459228515625,-49.4072265625,11.73248291015625,2
1596230842.666611,110,0,103174.852813625,-1.296695686802005,1.05526836740938,1.315170857288225,-0.2567757666110992,-0.02321693487465382,-0.4216122031211853,-0.02278679609298706,0.05251073837280273,-0.05318570137023926,2,0.6615675987154283,-0.001258659091525255,-0.1676528579851364,0.7309028592820455,0.2199874818325043,-0.9675053358078003,-0.1246534585952759,-6.791496276855469,-49.55184936523438,11.63650512695312,2
1596230842.690372,111,0,103174.882911625,-1.287140760872215,1.051675644639987,1.300837332738432,-0.3994115591049194,0.2583164572715759,-0.08438616245985031,0.2924351692199707,-0.02368247509002686,0.07190144062042236,2,0.6586477772972577,0.005290453362829017,-0.1698941126187438,0.7330013856957965,0.2315565794706345,-0.9637818336486816,-0.132310226559639,-5.984977722167969,-49.68662261962891,11.02349853515625,2
1596230842.727369,112,0,103174.913010625,-1.235317725623268,0.9983632475292142,1.301447282305097,-0.2942886650562286,-0.4404737651348114,0.3902855217456818,-0.03996029496192932,-0.02048122882843018,0.02275437116622925,2,0.6541578576031992,0.002502227258748102,-0.1681490713921531,0.737425841196295,0.2236824929714203,-0.9639443159103394,-0.1441424787044525,-6.303230285644531,-49.52759552001953,10.44485473632812,2
1596230842.750535,113,0,103174.943109625,-1.20006939857629,0.9486989464870377,1.299928034095072,-0.2993419766426086,-0.4042548835277557,-0.1569404900074005,0.008832156658172607,0.0961727499961853,-0.02600234746932983,2,0.6496334138342694,-0.003877550195760554,-0.1717772506920924,0.7405767328249976,0.2174412310123444,-0.9635389447212219,-0.1559227854013443,-6.45098876953125,-49.71714782714844,10.17147827148438,2
1596230842.784322,114,0,103174.973207625,-1.181774240434853,0.9226394056258146,1.29287668631367,-0.2594088912010193,-0.4151915311813354,0.1588018536567688,0.2283046245574951,-0.06117492914199829,-0.0134270191192627,2,0.6458746520680174,-0.00541556890105277,-0.1755468757060086,0.7429668449230664,0.2187153846025467,-0.961628258228302,-0.1656332165002823,-6.205772399902344,-49.75243377685547,9.953338623046875,2
1596230842.810884,115,0,103175.003306625,-1.129895378697228,0.8530920171772107,1.296951774608042,-0.275321364402771,-0.7667666077613831,0.5225836038589478,0.09662213921546936,0.002618014812469482,0.01026773452758789,2,0.6409536563879494,-0.0158704782279564,-0.1774087906790186,0.7466274505081362,0.2037229537963867,-0.9627383351325989,-0.1778530776500702,-6.792312622070312,-49.78363800048828,9.4312744140625,2
1596230842.843753,116,0,103175.033405625,-1.062577621071944,0.7673976173538201,1.301984045088663,-0.2641292214393616,-0.4291380643844604,0.5425036549568176,-0.2184778451919556,0.09260857105255127,0.06540149450302124,2,0.6353306432226032,-0.02794824635496976,-0.1781429944802504,0.750892043301096,0.1843871772289276,-0.9640870094299316,-0.1911477446556091,-6.958305358886719,-49.77693176269531,9.216888427734375,2
1596230842.87096,117,0,103175.063504625,-1.030741961898845,0.731642989829828,1.301452378724079,-0.2590813636779785,0.0808480978012085,-0.1889157146215439,-0.3789231181144714,-0.07277226448059082,-0.06582224369049072,2,0.6324795715496824,-0.03115403060222816,-0.1776456210150485,0.7532867204389305,0.1777786165475845,-0.9639456868171692,-0.1979980319738388,-7.577781677246094,-49.91194915771484,8.715545654296875,2
1596230842.903091,118,0,103175.093602625,-1.036101432496099,0.7478022502143474,1.288722883746405,-0.241671547293663,0.5872191190719604,-0.2821134924888611,-0.04480761289596558,0.06995511054992676,-0.03826373815536499,2,0.6304136433712856,-0.02320695358173533,-0.1779289945976079,0.7552358640479425,0.1892842799425125,-0.9604803919792175,-0.2040801495313644,-7.439956665039062,-49.97779083251953,8.347320556640625,2
1596230842.931114,119,0,103175.123701625,-1.030737654633539,0.7581403236985442,1.283585806070536,-0.09765954315662384,0.2561089694499969,0.06618852168321609,0.1076321601867676,0.04655081033706665,-0.007195472717285156,2,0.6299938946817535,-0.01617260926493774,-0.1740086424152844,0.7566815048755173,0.1947737336158752,-0.9590377807617188,-0.2056922763586044,-7.228370666503906,-49.96610260009766,8.02886962890625,2
1596230842.96517,120,0,103175.153800625,-1.018549081804469,0.7424567814394859,1.283655645465051,-0.02958033978939056,-0.3737556040287018,0.1835860162973404,0.1216233670711517,-0.03703200817108154,-0.1447386741638184,2,0.6287521719189975,-0.01829386849902331,-0.1743112919946093,0.757595736936814,0.1914784908294678,-0.9590575695037842,-0.2086720764636993,-7.307952880859375,-49.99769592285156,7.8790283203125,2
1596230842.991399,121,0,103175.183898625,-0.9995848123861382,0.7165810529953703,1.287736979588378,-0.02510088868439198,-0.1951874792575836,0.1647108942270279,-0.03064632415771484,0.02594500780105591,-0.0003250241279602051,2,0.6278195108947578,-0.02326207586072127,-0.1741905834783783,0.758260446311072,0.1834430694580078,-0.9602054953575134,-0.2106030732393265,-7.474044799804688,-49.80331420898438,7.835540771484375,2
1596230843.026516,122,0,103175.213997625,-0.9947632151414063,0.7048619302873113,1.286176101445237,-0.1102394089102745,-0.2083780318498611,-0.1827363967895508,-0.1215233504772186,0.01471388339996338,0.05579245090484619,2,0.6264150294406756,-0.02577179656290923,-0.1764373274534317,0.758821309693481,0.1819336116313934,-0.9597683548927307,-0.2138800472021103,-7.634628295898438,-49.81585693359375,7.876373291015625,2
1596230843.051694,123,0,103175.244096625,-1.002997686226876,0.7083414057529704,1.281533670949448,-0.006722161546349525,-0.08275383710861206,0.03444419428706169,0.1233678758144379,0.002060174942016602,-0.01114058494567871,2,0.6253178487792679,-0.02577095522274325,-0.1796621583371997,0.7589694834279179,0.1855731755495071,-0.9584544897079468,-0.2166268974542618,-7.355178833007812,-49.905517578125,7.916473388671875,2
1596230843.084018,124,0,103175.274195625,-0.9812928141006561,0.6862495446792523,1.284789218049015,-0.1237219348549843,-0.05323211476206779,0.2544203996658325,0.03507015109062195,0.007878899574279785,0.04086816310882568,2,0.6245576475479406,-0.02825403138597063,-0.1774952953857573,0.7600163878657974,0.1787650287151337,-0.9593780040740967,-0.2182589024305344,-7.278800964355469,-49.99140167236328,7.88543701171875,2
1596230843.111866,125,0,103175.304293625,-0.9635394901249429,0.6671737814683709,1.284084405909865,-0.07440055161714554,-0.01006921008229256,-0.01600756496191025,-0.09229546785354614,0.03691315650939941,0.02579492330551147,2,0.6229227542133231,-0.02978685671254813,-0.1768674811807888,0.7614445517507413,0.1749874800443649,-0.9591789245605469,-0.2221599668264389,-7.692817687988281,-49.62091827392578,7.924041748046875,2
1596230843.141836,126,0,103175.334392625,-0.9647956639935015,0.6697487131445842,1.281974547696382,-0.05232665687799454,0.07739344984292984,-0.02609581500291824,-0.007706910371780396,0.001943826675415039,-0.00543445348739624,2,0.6225208861859275,-0.02864385188352356,-0.1770662088357844,0.7617707531838815,0.1768147349357605,-0.9585801362991333,-0.2232945561408997,-7.658424377441406,-49.90827178955078,7.412109375,2
1596230843.172131,127,0,103175.364491625,-0.958254123324794,0.6655567389863372,1.280882351233032,-0.0952901765704155,-0.003258800599724054,0.05960957705974579,-0.05700245499610901,-0.01677459478378296,-0.02266436815261841,2,0.6219260507305265,-0.02792011736791614,-0.1761473735111589,0.7624960869926209,0.1765233129262924,-0.9582684636116028,-0.2248569130897522,-7.543708801269531,-49.78890991210938,7.483184814453125,2
1596230843.202409,128,0,103175.394590625,-0.9549193512307093,0.6601091171946901,1.280458852693755,0.08568557351827621,-0.103499174118042,-0.09896622598171234,-0.03780686855316162,0.06096714735031128,-0.05249440670013428,2,0.6213690464685809,-0.02885018757577401,-0.1766732482351138,0.7627940369437994,0.1755450665950775,-0.9581473469734192,-0.2261363565921783,-7.64837646484375,-49.89933776855469,7.492431640625,2
1596230843.234915,129,0,103175.424688625,-0.9620917673105213,0.6652497168507514,1.280127789428315,-0.01484399102628231,-0.1200599670410156,0.09125637263059616,0.07941007614135742,-0.02570754289627075,-0.03660351037979126,2,0.6216244507321221,-0.02903270345637776,-0.1778918443178446,0.7622955694524441,0.1769008338451385,-0.9580525159835815,-0.2254802882671356,-7.441635131835938,-50.00954437255859,7.266448974609375,2
1596230843.263352,130,0,103175.454787625,-0.9447923078708581,0.6465316325298452,1.283892985014602,-0.006433012895286083,0.01143066305667162,0.1803053766489029,-0.0615522563457489,0.007712662220001221,0.02200514078140259,2,0.6213332296826138,-0.03177155044483584,-0.176191460850443,0.7628185480122641,0.1704753637313843,-0.9591248035430908,-0.2258711755275726,-7.767410278320312,-49.96874237060547,7.309051513671875,2
1596230843.292392,131,0,103175.484886625,-0.9415262846471373,0.6449318122812758,1.283766806566666,0.04923062771558762,0.05098094791173935,-0.09880244731903076,-0.07223039865493774,0.02851998805999756,0.01758784055709839,2,0.6212069510097172,-0.03133496404518621,-0.175473000339066,0.7631049363345628,0.1701863706111908,-0.9590890407562256,-0.2262400835752487,-7.898246765136719,-49.930908203125,7.2969970703125,2
1596230843.323405,132,0,103175.514984625,-0.953164233362744,0.6545329533101368,1.285073050931548,0.191786989569664,-0.1450325399637222,0.01384397782385349,0.07550385594367981,0.007607996463775635,-0.01442992687225342,2,0.622253102288725,-0.03162950439392534,-0.1766078142147454,0.7619777294034876,0.1715875715017319,-0.95945805311203,-0.223601296544075,-7.836219787597656,-49.99227142333984,7.452239990234375,2
1596230843.352462,133,0,103175.545083625,-0.951789083215504,0.6523133344803855,1.285350430983683,-0.1224660128355026,-0.03993834555149078,-0.02388236112892628,-0.05592426657676697,-0.003329634666442871,-0.01076430082321167,2,0.6221601401018458,-0.03211921885044203,-0.1767066900082127,0.7620102667439091,0.1709293723106384,-0.9595361948013306,-0.2237702310085297,-7.837142944335938,-49.91663360595703,7.509033203125,2
1596230843.384392,134,0,103175.575182625,-0.9531959301792546,0.6560877168811994,1.283113356964499,-0.1114628091454506,0.2833278477191925,-0.0930095911026001,-0.03811749815940857,0.0156976580619812,0.05643600225448608,2,0.6218161408009082,-0.030537990081271,-0.1766157184572876,0.7623771902155237,0.1730820685625076,-0.9589038491249084,-0.2248242348432541,-7.485198974609375,-49.93119049072266,7.3809814453125,2
