loggingTime,loggingSample,identifierForVendor,motionTimestamp_sinceReboot,motionYaw,motionRoll,motionPitch,motionRotationRateX,motionRotationRateY,motionRotationRateZ,motionUserAccelerationX,motionUserAccelerationY,motionUserAccelerationZ,motionAttitudeReferenceFrame,motionQuaternionX,motionQuaternionY,motionQuaternionZ,motionQuaternionW,motionGravityX,motionGravityY,motionGravityZ,motionMagneticFieldX,motionMagneticFieldY,motionMagneticFieldZ,motionMagneticFieldCalibrationAccuracy
1596230849.342224,1,0,103181.5347184167,-1.03645688693498,0.8408053629617503,1.264910961626218,0.06572373956441879,-0.04860646650195122,0.171555683016777,0.03626267611980438,-0.04846566915512085,-0.03881961107254028,2,0.6318572789335472,0.01865067845776389,-0.1551643587243552,0.7591655447751005,0.2244013696908951,-0.9535807371139526,-0.2008170634508133,-6.790885925292969,-50.14402770996094,7.2825927734375,2
1596230849.378447,2,0,103181.5648174167,-1.030096465692051,0.8346287621331,1.269250344570696,0.02868151292204857,-0.004480108618736267,0.08926121145486832,-0.00233401358127594,0.0452568531036377,0.009949862957000732,2,0.6324545976483398,0.01707360935029861,-0.1535046782480468,0.7590428151324188,0.2200886756181717,-0.9548784494400024,-0.1994193494319916,-7.133125305175781,-50.17281341552734,7.095703125,2
1596230849.402389,3,0,103181.5949154167,-1.035735955217999,0.8389717509495049,1.27107145290593,0.07286567240953445,0.04383377730846405,-0.04160630702972412,0.01424628496170044,0.003445208072662354,0.01332384347915649,2,0.6333096749068219,0.01641466073775413,-0.1537667417530074,0.7582908126514363,0.2196581065654755,-0.9554177522659302,-0.1972988247871399,-7.035499572753906,-50.11167907714844,7.232574462890625,2
1596230849.447058,4,0,103181.6250144167,-1.03554321068021,0.8426743047112965,1.272272256981627,0.05810357257723808,0.09380774945020676,0.1209273636341095,0.07666151225566864,-0.01182085275650024,-0.02825403213500977,2,0.6339022811326381,0.01753475505842286,-0.152188370544892,0.7580890744755762,0.219530925154686,-0.9557716250419617,-0.1957208663225174,-7.065231323242188,-50.13275146484375,7.5377197265625,2
1596230849.46246,5,0,103181.6551134167,-1.033341094490586,0.841689876335768,1.277212382493679,0.0743120089173317,-0.01187726110219955,0.1097084954380989,0.1044617891311646,0.01251316070556641,-0.04601186513900757,2,0.6350867086725952,0.01644236988100126,-0.1502977347884564,0.7574992323608564,0.2158143520355225,-0.9572128653526306,-0.1927890479564667,-7.314643859863281,-49.91339874267578,7.512603759765625,2
1596230849.50327,6,0,103181.6852114167,-1.034663303713149,0.8428274640988803,1.280256947003671,0.08333209902048111,0.02519452571868896,0.03713175654411316,0.1309823542833328,0.01610255241394043,-0.04491645097732544,2,0.6359682539814526,0.01557901571830481,-0.1495929489803615,0.7569171220868764,0.2138567864894867,-0.9580894708633423,-0.1906033456325531,-7.367164611816406,-49.79941558837891,7.667205810546875,2
1596230849.522722,7,0,103181.7153104167,-1.031302965480862,0.8349354902558938,1.28580664045741,0.1929626613855362,-0.3746474981307983,0.3624005317687988,-0.06438435614109039,0.01913362741470337,-0.0610995888710022,2,0.6367870020342787,0.01207179596278726,-0.1492965727461439,0.75635110705812,0.2084012627601624,-0.959664523601532,-0.1887131780385971,-7.420516967773438,-49.96608734130859,7.70648193359375,2
1596230849.56469,8,0,103181.7454084167,-1.007862599472431,0.7989865103979905,1.302341019053002,0.2940952777862549,-0.1114983484148979,0.5242714285850525,-0.008677184581756592,0.1033029556274414,-0.007410764694213867,2,0.6383604090084591,0.001274389394479353,-0.1473776322601433,0.7554959422173242,0.1900856792926788,-0.9641817808151245,-0.184988722205162,-8.255447387695312,-49.89575958251953,8.155731201171875,2
1596230849.582898,9,0,103181.7755074167,-1.017891820024805,0.8098567817120433,1.314369363439306,0.3292609453201294,-0.0577804259955883,0.07608487457036972,-0.09513247013092041,-0.05808430910110474,0.008607566356658936,2,0.6422991592787878,-0.001221097472271865,-0.1444115644318656,0.7527253231652248,0.1836725473403931,-0.9673023819923401,-0.1749005913734436,-8.909423828125,-49.70423889160156,8.814910888671875,2
1596230849.624886,10,0,103181.8056064167,-1.026682681480731,0.819181832337446,1.325792675399633,0.2879242300987244,0.1525718718767166,0.3567567765712738,-0.09424293041229248,0.05352282524108887,0.03164386749267578,2,0.6458897603397702,-0.003785003560871469,-0.1415796313710848,0.7501780799014397,0.177210807800293,-0.9701364636421204,-0.1656241863965988,-9.019515991210938,-49.67615509033203,8.995819091796875,2
1596230849.643068,11,0,103181.83570425,-1.038310050521303,0.838311450530223,1.338141064264523,0.4479016363620758,0.278746485710144,0.1241170391440392,0.06655913591384888,0.0312766432762146,-0.05254286527633667,2,0.6503031319050451,-0.003920504440206335,-0.1363101405978378,0.7473351783608122,0.1714259535074234,-0.9730576276779175,-0.1541809290647507,-9.521217346191406,-49.39256286621094,9.58868408203125,2
1596230849.684713,12,0,103181.86580325,-1.064129055331241,0.8671039840285764,1.352680755151619,0.4387754201889038,0.05142461135983467,0.3662775754928589,-0.002247005701065063,0.007104814052581787,-0.01623183488845825,2,0.6557132286325151,-0.005839187778468036,-0.1324270639098477,0.7432825653709645,0.1649880260229111,-0.9763069748878479,-0.1400121301412582,-9.851966857910156,-49.22770690917969,9.768646240234375,2
1596230849.703197,13,0,103181.89590225,-1.085152753801216,0.8907026616018799,1.36947879196631,0.5107659697532654,0.07030744850635529,0.2237114459276199,-0.156708300113678,0.03604066371917725,-0.009711265563964844,2,0.661094185609935,-0.008968856882813986,-0.1276167419119381,0.739315851051234,0.1554717421531677,-0.9798039793968201,-0.1257480680942535,-10.38129425048828,-49.12024688720703,10.67532348632812,2
1596230849.745346,14,0,103181.92600025,-1.135378838393452,0.9454868899861893,1.379557301090557,0.3878646492958069,0.3999844193458557,-0.0173308253288269,-0.09140825271606445,-0.01103895902633667,0.0264439582824707,2,0.6665566596944467,-0.008494120499455526,-0.1249656868174821,0.7348561588280876,0.1541095077991486,-0.9817695021629333,-0.1112601384520531,-10.54067993164062,-48.95082092285156,11.15020751953125,2
1596230849.763464,15,0,103181.95609925,-1.17991156528561,1.003357206429685,1.38655802890223,0.3522358536720276,0.4159883558750153,0.07593467086553574,-0.01229235529899597,0.01779741048812866,-0.03471577167510986,2,0.6713785186788864,-0.004355585881692436,-0.1197965002798354,0.7313553254398112,0.1544866263866425,-0.9830760955810547,-0.09846382588148117,-10.88871002197266,-48.69377899169922,11.8668212890625,2
1596230849.807847,16,0,103181.98619825,-1.228466742009611,1.060831036570203,1.393124186658823,0.3705859482288361,0.3126352429389954,-0.01658010110259056,-0.06179672479629517,0.01890397071838379,-0.008788704872131348,2,0.6759137748478364,-0.001842100545713404,-0.1160886337386114,0.7277778062970478,0.1542505323886871,-0.9842577576637268,-0.08627434819936752,-10.74734497070312,-48.38837432861328,12.11209106445312,2
1596230849.823715,17,0,103182.01629625,-1.296307489503915,1.135910950706954,1.397079123156808,0.4385657012462616,0.216729149222374,-0.1252595335245132,-0.07968637347221375,0.00220954418182373,-0.02807313203811646,2,0.680873438380148,0.00108829830550497,-0.1139571551491642,0.7234803541568084,0.1567555218935013,-0.9849490523338318,-0.07282035052776337,-10.90869140625,-48.60223388671875,12.76776123046875,2
1596230849.866591,18,0,103182.04639525,-1.371614727514347,1.213763221970647,1.398156210298758,0.3962457478046417,-0.01308952830731869,-0.0932631641626358,-0.0209505558013916,0.01095759868621826,-0.0304875373840332,2,0.6855448483834622,0.003075788908123989,-0.1141626723519402,0.7190171105057659,0.1609503477811813,-0.9851346611976624,-0.06003760173916817,-11.11105346679688,-48.50465393066406,13.133056640625,2
1596230849.883892,19,0,103182.07649325,-1.448985111273684,1.289140320242007,1.398733838877021,0.4482767879962921,-0.1133960261940956,-0.2048969268798828,-0.03800457715988159,-0.02219080924987793,-0.003374040126800537,2,0.6900688999779282,0.003281015834806195,-0.1157705045605005,0.7144166503429245,0.1644672751426697,-0.9852337241172791,-0.0475882962346077,-10.64684295654297,-48.02182769775391,13.81472778320312,2
1596230849.924795,20,0,103182.10659225,-1.524545058335122,1.352043943449213,1.394842480802688,0.3627135455608368,-0.4741794466972351,-0.2064229100942612,0.06308957934379578,0.03077614307403564,-0.008178591728210449,2,0.6935456819656214,0.0009067061194104054,-0.1222610908918641,0.7099616896073788,0.170874759554863,-0.9845600128173828,-0.03798713162541389,-10.63069152832031,-48.15701293945312,14.29293823242188,2
1596230849.944036,21,0,103182.13669125,-1.569151601474949,1.384864774181287,1.393065267820691,0.1890429705381393,-0.3984103798866272,-0.01105074398219585,-0.05833920836448669,-0.03072857856750488,-0.006048321723937988,2,0.6954517384229261,-0.002327609101006822,-0.1272850697911659,0.7072056717997043,0.1737490445375443,-0.9842473864555359,-0.03268292173743248,-9.997428894042969,-48.11204528808594,15.052490234375,2
1596230849.985546,22,0,103182.16678925,-1.630570380158558,1.438327282117115,1.393269432855056,0.2393388897180557,-0.3192579448223114,-0.1709656566381454,-0.1099491119384766,0.08118522167205811,0.1681506633758545,2,0.6987939004918998,-0.004955147731910359,-0.1302376764780029,0.7033495485551422,0.1750481873750687,-0.984283447265625,-0.02332506142556667,-9.91400146484375,-48.21125793457031,15.45382690429688,2
1596230850.00431,23,0,103182.19688825,-1.655724194507647,1.451460238670383,1.384628452454923,0.1854158341884613,-0.4333491921424866,-0.3156629502773285,0.03371345996856689,-0.04133999347686768,0.041126549243927,2,0.6992461905180919,-0.006065359047163321,-0.1374958903477975,0.7015074542648039,0.1837771683931351,-0.9827207326889038,-0.02203595265746117,-9.368095397949219,-47.93643188476562,15.80267333984375,2
1596230850.047977,24,0,103182.22698725,-1.679796333832318,1.465383697771001,1.380945885691879,-0.0003657974302768707,-0.192772164940834,-0.008152036927640438,-0.01791054010391235,0.0482637882232666,0.2242648601531982,2,0.7000023150645788,-0.008299330879181444,-0.1423417864770368,0.6997618189336429,0.1876640468835831,-0.9820324778556824,-0.01985576003789902,-8.604911804199219,-47.82816314697266,16.07870483398438,2
1596230850.064368,25,0,103182.25708525,-1.677596742866084,1.450709820298105,1.376504789347742,-0.03435838967561722,-0.6520475745201111,-0.3522993326187134,-0.142358809709549,-0.04787170886993408,0.01292330026626587,2,0.6987935058850163,-0.0110845193766739,-0.1482500547202497,0.6997046553988899,0.1916805654764175,-0.981184720993042,-0.0231295395642519,-8.530059814453125,-47.81320953369141,16.23956298828125,2
1596230850.109882,26,0,103182.28718425,-1.667480174151061,1.431526279253446,1.365503822382408,-0.1927496343851089,0.162032887339592,-0.2510241568088531,-0.004106879234313965,0.05169135332107544,0.1676231622695923,2,0.6969529361328141,-0.01035323223418591,-0.15522843913963,0.7000380625405045,0.2018785178661346,-0.9790014028549194,-0.02829883061349392,-7.453140258789062,-47.65702819824219,16.07388305664062,2
1596230850.12466,27,0,103182.31728325,-1.634964534494922,1.408398681329835,1.357484586261449,-0.3577637672424316,0.154874175786972,-0.2724263668060303,0.04934030771255493,-0.03233432769775391,0.1263473033905029,2,0.6948866288726809,-0.004294373735339224,-0.1546610402232926,0.7022777546591269,0.2089120894670486,-0.9773352146148682,-0.03422826156020164,-7.436447143554688,-47.89681243896484,15.88430786132812,2
1596230850.165986,28,0,103182.34738125,-1.581633249334896,1.354087359141595,1.347316752536824,-0.465779572725296,-0.242448553442955,-0.1559375822544098,0.1006234586238861,-0.03035598993301392,0.02650701999664307,2,0.6900520446956067,-0.001345490041896796,-0.1582055924596262,0.7062557645293895,0.2164396643638611,-0.975132167339325,-0.04765272885560989,-6.759437561035156,-48.40895843505859,15.06338500976562,2
1596230850.184805,29,0,103182.37748025,-1.529930499993938,1.2971701719045,1.341694909999114,-0.4568584859371185,-0.03319772705435753,-0.08609206974506378,-0.02620843052864075,0.05567628145217896,0.09102439880371094,2,0.6850640332790858,-0.001744324312856871,-0.1613945835863957,0.7103772511644559,0.2186529934406281,-0.9738708734512329,-0.06136845424771309,-6.912704467773438,-48.45833587646484,14.59658813476562,2
1596230850.226937,30,0,103182.40757825,-1.472374405369186,1.249600970463787,1.332746659674579,-0.5408574342727661,0.5755204558372498,-0.2679495811462402,-0.194336861371994,-0.02364802360534668,0.1984115839004517,2,0.6802654599955971,0.00407971068165941,-0.1601666033759377,0.7152403366410092,0.2237475663423538,-0.9717997312545776,-0.07444451749324799,-6.783027648925781,-48.86058807373047,13.83486938476562,2
1596230850.245045,31,0,103182.43767725,-1.401876467937984,1.211400789174999,1.316534538462891,-0.8664142489433289,1.338022112846375,-0.2560960352420807,-0.08348360657691956,-0.06081008911132812,0.1903624534606934,2,0.674813736344455,0.01984411050953772,-0.1532419527189401,0.7216296072106834,0.2354597449302673,-0.9678492546081543,-0.08846526592969894,-6.737396240234375,-48.79794311523438,13.25149536132812,2
1596230850.284548,32,0,103182.46777625,-1.328851635492703,1.17956328090159,1.30351240377258,-0.6204633116722107,1.233787775039673,-0.3321976661682129,-0.4336231052875519,-0.02975958585739136,-0.2013953924179077,2,0.6695176524845404,0.0372734017140178,-0.1417978098746461,0.7281827249273598,0.2441559731960297,-0.9644917845726013,-0.1007136106491089,-6.762123107910156,-49.26901245117188,11.48797607421875,2
1596230850.305259,33,0,103182.49787425,-1.301187051628866,1.188132415424926,1.268505667092391,-0.7368088364601135,0.7617862820625305,-1.654644012451172,-0.8329652547836304,-0.2566636800765991,0.1749803423881531,2,0.663817404747222,0.0613630529619541,-0.140351275294076,0.7320400200676499,0.2761756479740143,-0.9546570181846619,-0.1111620590090752,-6.641838073730469,-49.31120300292969,10.63687133789062,2
1596230850.346788,34,0,103182.52797325,-1.291362438281471,1.191088915746352,1.200310621089127,-1.14665150642395,0.4742994010448456,-2.478410005569458,-0.7996564507484436,-0.4904768466949463,0.3482829332351685,2,0.6519859591551317,0.08839839091234949,-0.1580602294416405,0.7362858995503063,0.3362790644168854,-0.9321516156196594,-0.1342000663280487,-3.663909912109375,-49.950927734375,8.9862060546875,2
1596230850.365553,35,0,103182.55807225,-1.247613903998117,1.219519363712209,1.092440690028785,-2.650692701339722,4.273572444915771,-3.354476928710938,-1.083749532699585,-1.437676429748535,0.6861336827278137,2,0.6314831261131857,0.1484309987860828,-0.1677306870814105,0.7423364805812723,0.432209700345993,-0.8877530694007874,-0.1583946049213409,-1.116790771484375,-50.01860809326172,7.809356689453125,2
1596230850.406111,36,0,103182.58817025,-1.132190345887621,1.255143403082012,0.9628533692257761,-3.905505418777466,5.06840991973877,-3.968899011611938,-1.185478210449219,-0.4897167682647705,0.7736742496490479,2,0.5954760738976975,0.238223627980429,-0.1553207054849206,0.7513541338561702,0.5429601669311523,-0.8208246827125549,-0.1773155033588409,4.539421081542969,-49.92343902587891,3.565582275390625,2
1596230850.425663,37,0,103182.61826925,-1.013670298502636,1.34522028568884,0.8056873216922044,-3.798845291137695,6.480294704437256,-4.27460241317749,-0.06258165836334229,0.05496662855148315,0.6354573965072632,2,0.5463166652546249,0.3522501842843921,-0.1357505387325328,0.7476828180539388,0.6750683784484863,-0.7213068604469299,-0.1549158245325089,8.128555297851562,-49.39669799804688,0.793487548828125,2
1596230850.467757,38,0,103182.64836725,-0.8807699781790167,1.443687575832415,0.6782676539821147,-4.129858493804932,5.647029399871826,-2.843352794647217,0.4774576425552368,0.1721407771110535,0.5162825584411621,2,0.4915089061884814,0.4572361125737512,-0.1028972922107234,0.7340068133692418,0.7723787426948547,-0.6274450421333313,-0.09870826452970505,15.92058563232422,-46.794921875,-2.553802490234375,2
1596230850.485933,39,0,103182.67846625,-0.7380868715608753,1.491493117224229,0.5993225930941616,-3.877942323684692,2.875193119049072,-1.79250967502594,0.4698702096939087,0.2363718748092651,-0.1833786964416504,2,0.4360973656372557,0.5264146346440228,-0.06636074790685981,0.7268443282646746,0.823122501373291,-0.5640832781791687,-0.06541343778371811,21.06488800048828,-43.78160095214844,-5.619781494140625,2
1596230850.527201,40,0,103182.70856525,-0.6063109197552712,1.473564193345825,0.5553154588072056,-3.835957288742065,1.185875535011292,-0.3284465074539185,0.05578738451004028,-0.0243954062461853,-0.01518726348876953,2,0.3866578131558381,0.5561025745261889,-0.03686155751202597,0.7347698369110094,0.8457204103469849,-0.5272113680839539,-0.08249132335186005,22.86353302001953,-42.54842376708984,-7.843414306640625,2
1596230850.546019,41,0,103182.73866325,-0.4607266415128712,1.435167116629311,0.551458204575774,-4.413904666900635,1.267091512680054,0.8611538410186768,-0.2774289846420288,0.2701905965805054,0.39226895570755,2,0.3441644606079614,0.5691800197361969,0.008766130509763548,0.746664566058704,0.8439391255378723,-0.5239298343658447,-0.1151698604226112,23.23056030273438,-40.69675445556641,-12.81564331054688,2
1596230850.585495,42,0,103182.76876225,-0.2922143601953003,1.384349322041613,0.5641421305794528,-4.795645713806152,1.455232620239258,1.510485529899597,-0.2579381465911865,0.6249566674232483,0.4059023857116699,2,0.301248016284491,0.5752625351334373,0.06809805213899867,0.7574200184884544,0.8304018974304199,-0.5346910953521729,-0.1566452980041504,22.60211181640625,-39.92117309570312,-15.61630249023438,2
1596230850.606429,43,0,103182.79886125,-0.1127816805435304,1.345090598680927,0.5912906954659611,-4.595210552215576,2.512202262878418,2.375147581100464,0.048198401927948,0.9599009156227112,0.5176404714584351,2,0.2611369724085816,0.5821581142916807,0.1390460737597055,0.7573409592581745,0.8091642260551453,-0.5574330687522888,-0.1857988238334656,21.3778076171875,-37.83047485351562,-20.80169677734375,2
1596230850.648455,44,0,103182.828959375,0.05656095969750276,1.340208919875058,0.644169112708961,-3.450563192367554,3.720471382141113,3.075310707092285,0.270222008228302,1.101906776428223,0.2352356910705566,2,0.2313360961515005,0.5959107884714315,0.2175395202473242,0.7375977654001298,0.7784354686737061,-0.6005342602729797,-0.1827478855848312,20.84131622314453,-37.33399200439453,-22.61239624023438,2
1596230850.666398,45,0,103182.859058375,0.1888799414825252,1.373911895364375,0.7223857341777608,-2.438034296035767,3.979270935058594,3.451526165008545,0.3261270523071289,0.4743869304656982,0.1501808166503906,2,0.2160720299344318,0.6163884871377336,0.2913229156630742,0.6989341007219277,0.7357363700866699,-0.6611763834953308,-0.1467562168836594,20.05585479736328,-37.00558471679688,-23.87069702148438,2
1596230850.705185,46,0,103182.889156375,0.3040232440137403,1.402292376785109,0.8047161749357195,-2.051949977874756,3.341460704803467,2.500746488571167,0.1687585115432739,-1.29337203502655,0.04683148860931396,2,0.2058807055438742,0.6320411032320739,0.3561643706730066,0.6567221716295658,0.6834960579872131,-0.720633864402771,-0.116274356842041,19.22468566894531,-37.17366790771484,-23.75119018554688,2
1596230850.726524,47,0,103182.919255375,0.4242344979731199,1.411856677576985,0.8515390952197703,-2.754537105560303,3.656753778457642,1.859038591384888,-0.6830222010612488,-0.2550802230834961,0.5778018236160278,2,0.1828830808473167,0.6437524149885178,0.4078503702016952,0.6211235321151902,0.6505216956138611,-0.7522953152656555,-0.1042732149362564,19.26556396484375,-36.87309265136719,-24.38290405273438,2
1596230850.765771,48,0,103182.949354375,0.5260839855434553,1.478580117342888,0.8990409019615254,-0.7534359097480774,5.31102991104126,1.486049175262451,-1.292983293533325,0.6079419255256653,0.07680892944335938,2,0.1522656094534592,0.6694475085952932,0.4557549220985343,0.5665178463475702,0.6197163462638855,-0.7827303409576416,-0.05731043592095375,20.1075439453125,-36.31801605224609,-24.4046630859375,2
1596230850.7871,49,0,103182.979452375,0.4831517685757382,1.694016361514589,0.8915452695260171,-0.251088559627533,11.09645843505859,-3.485099077224731,2.341113090515137,0.4699968099594116,2.642737865447998,2,0.1154914855872368,0.7247536717852032,0.4566295742414692,0.5028747740597311,0.6234470009803772,-0.7780434489250183,0.07721233367919922,23.46095275878906,-36.96929931640625,-19.49746704101562,2
1596230850.8247,50,0,103183.009551375,0.6318357370457519,1.684622576386042,0.795536830568625,-0.1421447247266769,-1.212763428688049,-1.83361542224884,2.902232885360718,0.9258081912994385,-1.553759455680847,2,0.03138853429473609,0.7340043333543294,0.4654287795647575,0.4935871470670731,0.6953719258308411,-0.7142394185066223,0.07949520647525787,28.46012878417969,-34.61937713623047,-16.77960205078125,2
1596230850.847232,51,0,103183.039650375,0.5416682917535219,1.644177269905492,0.797239174263966,1.481590986251831,-4.070786476135254,2.439307928085327,0.1218503713607788,-0.07171833515167236,0.5303199291229248,2,0.07395534875639359,0.7212091650841923,0.4418108375998648,0.5283851967657339,0.6968039274215698,-0.7154299020767212,0.05122410506010056,29.47645568847656,-32.48008728027344,-18.675048828125,2
1596230850.886816,52,0,103183.069748375,0.5175235501340122,1.571790239639893,0.9145081067048084,0.2387939542531967,-1.024831295013428,4.227763175964355,-1.240438938140869,-0.5593659281730652,0.9604783058166504,2,0.1392047268858227,0.6934877626873142,0.4642029080764273,0.5331157573391941,0.6101800203323364,-0.7922625541687012,0.0006064659683033824,26.25612640380859,-34.50393676757812,-20.16061401367188,2
1596230850.907209,53,0,103183.099847375,0.4876552963058455,1.58259696292998,0.9858764681786156,0.4832257628440857,0.4296721220016479,0.2241093665361404,-1.142430782318115,0.1322652697563171,0.1610153913497925,2,0.1715252270351275,0.6883580284876655,0.4761227830429604,0.5196625003992206,0.5520935654640198,-0.8337563276290894,0.00651535764336586,20.28287506103516,-38.04413604736328,-21.03887939453125,2
1596230850.947035,54,0,103183.129945375,0.4896427077047216,1.603572507268192,0.9510886254485842,-0.07253788411617279,0.4112283885478973,-1.784513115882874,-0.02372086048126221,0.05436384677886963,-0.3986406326293945,2,0.1540364947087849,0.6969857994419767,0.4690370895986004,0.5200841406651169,0.5804848670959473,-0.8140482306480408,0.01903289183974266,20.04656219482422,-38.68330383300781,-20.656494140625,2
1596230850.967344,55,0,103183.160044375,0.4812553878054805,1.609024755624449,0.9265521588684029,0.1129355579614639,-0.2112269848585129,0.5655392408370972,0.3198331594467163,-0.3656796216964722,-0.2069063186645508,2,0.1473632766437235,0.6998293774988427,0.4605391523082311,0.5257628993062061,0.6001555323600769,-0.7995539307594299,0.022954186424613,22.18033599853516,-37.32465362548828,-20.2264404296875,2
1596230851.006247,56,0,103183.190143375,0.4828231050484669,1.60218188370629,0.9665850586926321,-0.1081054210662842,-0.1139054894447327,1.453085541725159,-0.2187653779983521,-0.2215238213539124,0.07308614253997803,2,0.1619961475897435,0.6947453146456385,0.4713511469053379,0.5185692478132896,0.5678329467773438,-0.8229504227638245,0.01782760769128799,20.85600280761719,-38.21662902832031,-20.29705810546875,2
1596230851.027532,57,0,103183.220241375,0.4885040100652577,1.598922111031834,0.9880944698880528,-0.2782213985919952,0.0810253769159317,-0.158590629696846,-0.391166627407074,0.08951318264007568,0.08628976345062256,2,0.1680910381049754,0.6924470639243943,0.4783158721317928,0.5132994469292315,0.5500641465187073,-0.8349789381027222,0.01547506731003523,19.93147277832031,-38.58632659912109,-20.50241088867188,2
1596230851.064915,58,0,103183.250340375,0.5033128378083208,1.585177095952262,0.9683691823367201,-0.09837119281291962,-0.05910110101103783,-0.7986264824867249,-0.05191242694854736,-0.0161365270614624,-0.03090190887451172,2,0.1595276618773721,0.6918274150799149,0.4757770989844666,0.5191934531260793,0.5665853023529053,-0.8239626884460449,0.008148494176566601,20.58259582519531,-37.79486846923828,-20.66848754882812,2
1596230851.087723,59,0,103183.280439375,0.5042101800388817,1.585270872726026,0.9576704819879288,-0.1066873520612717,-0.01705875433981419,0.1258124113082886,-0.1318588852882385,-0.2892059087753296,0.1063203811645508,2,0.1555318453838666,0.692801715721123,0.4731814284986344,0.5214736255943226,0.5753660798072815,-0.8178533315658569,0.00832874421030283,20.93919372558594,-37.5858154296875,-20.62554931640625,2
1596230851.123868,60,0,103183.310537375,0.5165478736477438,1.570438121499216,0.9621794476616924,-0.28385329246521,-0.2604631185531616,-0.1086012497544289,-0.3728200793266296,-0.1797266006469727,0.1344261169433594,2,0.1563393987610391,0.6895328806523111,0.4764332486317586,0.5226027446946699,0.5717329978942871,-0.8204395771026611,-0.000204797790502198,20.79038238525391,-37.54076385498047,-21.234130859375,2
1596230851.147979,61,0,103183.340636375,0.5291107873614356,1.554834267185657,0.944402814130786,-0.2071738243103027,-0.05338612943887711,-0.9764448404312134,-0.1768963932991028,-0.02853953838348389,0.05767500400543213,2,0.1495620836595268,0.6877155594028602,0.4739190578139203,0.5292249483570073,0.5861518383026123,-0.8101469874382019,-0.009356984868645668,20.9320068359375,-37.40923309326172,-21.53118896484375,2
1596230851.184897,62,0,103183.370734375,0.5364531277828443,1.548655326426853,0.9159637476040656,-0.200386255979538,-0.08078669011592865,-0.7249174118041992,0.03653156757354736,-0.1456848382949829,-0.03912472724914551,2,0.1385632682793643,0.6885190977551462,0.4680416597108627,0.5363566486775877,0.6088768243789673,-0.7931498885154724,-0.01348334550857544,22.21482849121094,-36.46413421630859,-21.87872314453125,2
1596230851.208179,63,0,103183.400833375,0.544661912216798,1.534562990181025,0.9027821929508719,-0.1065691038966179,-0.188831627368927,-0.2429629117250443,0.02963519096374512,-0.08634209632873535,0.07162344455718994,2,0.1344007010600307,0.6860881425253205,0.4658726126517473,0.5423854283340783,0.6190212368965149,-0.7850533127784729,-0.02243902534246445,22.56230926513672,-35.93986511230469,-22.066162109375,2
1596230851.243191,64,0,103183.430932375,0.5448768134615302,1.538135594468109,0.8942237249569741,-0.03389952331781387,0.4825514554977417,-0.3738403022289276,-0.009727954864501953,-0.009943246841430664,0.2792590856552124,2,0.1304791449712064,0.6875697583603643,0.4639474456603203,0.5431167000558059,0.6257902979850769,-0.7797232866287231,-0.0204460397362709,22.84133911132812,-35.83345031738281,-22.15435791015625,2
1596230851.268447,65,0,103183.461030375,0.55036095282168,1.551105819399526,0.8809772138868462,-0.1720335334539413,0.4806531965732574,-0.4670282304286957,0.1478721499443054,-0.008303523063659668,0.5231720209121704,2,0.1209207858363381,0.6921799437348393,0.4627806806638781,0.5404618065771103,0.6362740397453308,-0.7713611721992493,-0.01253017783164978,23.40494537353516,-35.80063629150391,-21.79867553710938,2
1596230851.305278,66,0,103183.491129375,0.550806018068226,1.555924949434121,0.8733907959956705,0.2515033483505249,-0.4028988480567932,0.2034248560667038,0.7262560129165649,0.2565703392028809,0.5976814031600952,2,0.1169894381026526,0.6939295487225232,0.4611832550479906,0.5404489504450966,0.6421598792076111,-0.7665110230445862,-0.009550505317747593,24.37354278564453,-34.95055389404297,-21.53863525390625,2
1596230851.328492,67,0,103183.521228375,0.5138653545692502,1.520369970443666,0.9077419350929961,1.654873251914978,-4.318608283996582,1.927454590797424,0.7173511981964111,0.7357630729675293,0.05054259300231934,2,0.1499447109227333,0.6797086003444215,0.4577123033212409,0.5531834741743292,0.6147440671920776,-0.7881158590316772,-0.031025605276227,23.890380859375,-35.30059814453125,-21.59100341796875,2
1596230851.36402,68,0,103183.551326375,0.3898281432919325,1.428361895516129,0.9702312932891792,3.049694061279297,-8.118912696838379,1.422593235969543,0.4041464924812317,0.4618764519691467,0.4447267055511475,2,0.2334616966879547,0.6366993952230535,0.4291155163026118,0.5966316226423274,0.5593858957290649,-0.8250164389610291,-0.08021903038024902,17.39673614501953,-38.61038208007812,-23.38949584960938,2
1596230851.388696,69,0,103183.581425375,0.2239257564541231,1.284177831149251,1.013742284267744,3.497667074203491,-9.931299209594727,0.1268279701471329,0.3378987908363342,-0.1702464818954468,0.9801501035690308,2,0.3278338111599804,0.5637306908727499,0.3671252699702615,0.6632883876236828,0.50711989402771,-0.8488162755966187,-0.1494653970003128,12.56005096435547,-40.53443145751953,-23.64547729492188,2
1596230851.425087,70,0,103183.611523375,0.02779712175112609,1.172209227929702,1.038713013703957,3.189096450805664,-8.307839393615723,-0.8557787537574768,-0.307162880897522,-0.1676921844482422,0.9914815425872803,2,0.4067727424686914,0.485885205640221,0.2845507413004031,0.7193623892046337,0.4675601124763489,-0.8617520332336426,-0.1969030052423477,3.167060852050781,-43.64066314697266,-21.95706176757812,2
1596230851.448887,71,0,103183.641622375,-0.1834833544733536,1.143388911251849,1.028166318607877,3.1244797706604,-5.50853967666626,-2.797520875930786,-0.7487053871154785,0.07064002752304077,0.3669120073318481,2,0.4549653269890043,0.4312556462917339,0.1978525230302481,0.7535777548745681,0.4699372351169586,-0.8563535213470459,-0.2140502333641052,-0.3395462036132812,-46.28108978271484,-17.46914672851562,2
1596230851.485488,72,0,103183.671721375,-0.4186060449838508,1.217014324076455,0.9716070881302428,3.108064413070679,-3.167239904403687,-3.554504632949829,0.006345450878143311,0.1489280462265015,0.1404420137405396,2,0.4797800161752546,0.4148704546796117,0.1103285016934277,0.7651934613853872,0.5290455222129822,-0.8257931470870972,-0.1953872889280319,0.9683456420898438,-47.21446990966797,-15.01144409179688,2
1596230851.509195,73,0,103183.701819375,-0.615686385987355,1.282378111194457,0.9091959804671835,2.998457193374634,-3.403890609741211,-2.613661527633667,0.5898200273513794,-0.06232601404190063,-0.0118553638458252,2,0.4981807370232052,0.405512021007334,0.03213945423944706,0.7657302803992954,0.5890031456947327,-0.7890100479125977,-0.1747519075870514,5.152084350585938,-48.07454681396484,-10.13241577148438,2
1596230851.54823,74,0,103183.731918375,-0.7844935588697159,1.293330528815194,0.8742057481844692,3.076356410980225,-4.56771993637085,-1.752280354499817,0.3222960233688354,-0.006967127323150635,-0.1148341298103333,2,0.5208601798436748,0.3752739418979179,-0.04071258525252022,0.7656477907552105,0.6170664429664612,-0.7670341730117798,-0.1757482886314392,6.638778686523438,-48.59452056884766,-7.839141845703125,2
1596230851.569756,75,0,103183.762017375,-0.9350117848553882,1.264958657818167,0.8528231245065457,2.78908896446228,-4.688802719116211,-1.409772038459778,-0.0631558895111084,0.08826261758804321,0.04468703269958496,2,0.5403548324012115,0.3301190054246605,-0.1126733770799983,0.7657300537847915,0.6273313164710999,-0.7531406283378601,-0.1980761885643005,8.955390930175781,-48.58374786376953,-4.037689208984375,2
1596230851.607024,76,0,103183.792115375,-1.070634175860638,1.235787253358301,0.8501139841520371,2.806276798248291,-3.917372941970825,-0.5788506269454956,-0.3282822370529175,-0.02414274215698242,0.1217982769012451,2,0.5583258525936399,0.2824755780656426,-0.1733189333537105,0.7605526017748687,0.6232119798660278,-0.7513556480407715,-0.2169595807790756,9.904373168945312,-48.50318145751953,-2.770263671875,2
1596230851.629551,77,0,103183.8222144167,-1.187392741280424,1.232735310090312,0.8725496690089382,2.405319452285767,-1.96220874786377,0.237531766295433,-0.5265386700630188,-0.2396582365036011,0.2739012241363525,2,0.5789035712127544,0.2413775589197196,-0.2112523075413987,0.7496530691048362,0.6064882874488831,-0.7659705281257629,-0.2132150530815125,10.47677612304688,-48.58292388916016,0.67730712890625,2
1596230851.669854,78,0,103183.8523124167,-1.27716552338837,1.256573751058093,0.9112384261597156,2.005892276763916,-1.634188294410706,1.073050141334534,-0.2754532098770142,-0.03426063060760498,0.2374218702316284,2,0.600439981242388,0.2116025219218458,-0.2253782486716579,0.7374962128892746,0.5827643275260925,-0.7902632355690002,-0.1893924027681351,10.07595062255859,-48.84695434570312,2.402374267578125,2
1596230851.689777,79,0,103183.8824114167,-1.341236784439094,1.246628356896632,0.9765133172891903,1.6374351978302,-2.314253091812134,2.284772872924805,-0.003395974636077881,-0.154748797416687,0.2943060398101807,2,0.6187729352885825,0.1671766523678987,-0.2311194031589782,0.7319532335403856,0.5307518243789673,-0.8285501599311829,-0.1783440411090851,8.089553833007812,-49.16412353515625,5.250732421875,2
1596230851.724389,80,0,103183.9125104167,-1.351328101575594,1.186135481140232,1.067475622048685,0.8052400350570679,-1.928708791732788,3.077458620071411,-0.2038929760456085,-0.364931583404541,0.4753682017326355,2,0.6301166470393303,0.1116057387353462,-0.2246065402985205,0.7348801667387717,0.4470903277397156,-0.8759856820106506,-0.1809943467378616,6.181793212890625,-49.48200988769531,6.3798828125,2
1596230851.750143,81,0,103183.9426084167,-1.311559885241671,1.104031223882092,1.150712773909374,0.5158059597015381,-1.291017174720764,1.954077005386353,-0.7316893935203552,-0.2970184087753296,0.311812698841095,2,0.6354960252837589,0.06619371063787087,-0.2094561017198566,0.7401967780363405,0.364209771156311,-0.913054883480072,-0.1835263818502426,0.8647003173828125,-50.12563323974609,7.464447021484375,2
1596230851.783889,82,0,103183.9727074167,-1.314732157135982,1.091281129090219,1.181585512762516,0.5018605589866638,-0.1702952682971954,0.3801295757293701,-0.5741700530052185,-0.155287504196167,0.1190892457962036,2,0.6402688000226056,0.0502456105801804,-0.2049445985633966,0.7385991197068557,0.3366619944572449,-0.9252088069915771,-0.1750624775886536,-0.384033203125,-50.02809906005859,7.930511474609375,2
1596230851.810148,83,0,103184.0028054167,-1.320129070533132,1.080872292862324,1.215024387669829,0.7350217700004578,-0.397530198097229,1.49071991443634,-0.4494599103927612,-0.04691231250762939,0.2188746929168701,2,0.6456942595367953,0.0335843618683252,-0.1996979425058379,0.7362550717808191,0.3073409497737885,-0.9373778700828552,-0.1639020293951035,-1.804161071777344,-49.98131561279297,8.9091796875,2
1596230851.844285,84,0,103184.0329044167,-1.325703032595454,1.093476899432631,1.25115409059289,0.368953675031662,0.3887330889701843,0.139679953455925,-0.4837331175804138,-0.3424865007400513,0.01361972093582153,2,0.6536261104517733,0.02439270670338703,-0.1861446315741647,0.7331630616784692,0.2791056334972382,-0.9493479132652283,-0.1443558037281036,-2.952674865722656,-49.73486328125,9.413360595703125,2
1596230851.87031,85,0,103184.0630034167,-1.367091051899805,1.133785135944126,1.245951328904827,0.3326374590396881,-0.03738732635974884,-0.3873569071292877,-0.131811261177063,-0.1249641180038452,-0.09820103645324707,2,0.6570495722233216,0.02731203171764951,-0.1897439728040128,0.7290658390745136,0.2891669273376465,-0.9477002024650574,-0.1350798308849335,-3.698150634765625,-49.74015045166016,10.3682861328125,2
1596230851.904238,86,0,103184.0931014167,-1.402655088614291,1.168836149118283,1.250139026142226,0.5630640983581543,-0.1081110760569572,0.262016236782074,-0.1017950177192688,0.02961134910583496,0.1910750269889832,2,0.66152948405669,0.02690745972185879,-0.1897504589753733,0.7250167052402291,0.2900677621364594,-0.9490284323692322,-0.123309463262558,-3.379562377929688,-49.42469024658203,11.1170654296875,2
1596230851.930516,87,0,103184.1232004167,-1.444707364526476,1.201964073984175,1.259477425070503,0.2728050053119659,-0.1661854386329651,-0.1884441673755646,-0.3203427493572235,-0.2464535236358643,0.1643354296684265,2,0.6665670913446528,0.02170719310571526,-0.1908613438067047,0.7202699772529304,0.2857138514518738,-0.9519304037094116,-0.1104342192411423,-3.596977233886719,-49.36884307861328,11.65521240234375,2
1596230851.961417,88,0,103184.1532984167,-1.459879156856142,1.230905156721395,1.248572053277896,0.03945409134030342,0.8035820126533508,-0.4135774075984955,-0.01485323905944824,0.09348630905151367,0.04344296455383301,2,0.668028427556027,0.03083000506995126,-0.1902933936682392,0.7187320489985096,0.2985598146915436,-0.9485334157943726,-0.1055750623345375,-3.314453125,-49.50128173828125,11.69967651367188,2
1596230851.990806,89,0,103184.1833974167,-1.477025353906455,1.262083440755751,1.243562784169798,0.08383183181285858,0.1411081552505493,-0.03814617544412613,0.2648327350616455,0.1551750898361206,0.08970862627029419,2,0.6706153522183029,0.03802005574750525,-0.1876886098767078,0.7166604768950209,0.3062286674976349,-0.9469351768493652,-0.09765905141830444,-3.133323669433594,-49.43369293212891,12.17453002929688,2
1596230852.025711,90,0,103184.2134964167,-1.475076272232963,1.262512753254866,1.247142305744331,0.02467615902423859,-0.1579993665218353,0.3239698112010956,0.2774504423141479,-0.09555685520172119,0.008072614669799805,2,0.6710725048816417,0.03758232418449367,-0.1856445240807198,0.7167880885858957,0.3030389845371246,-0.9480796456336975,-0.0964985266327858,-3.199928283691406,-49.50569915771484,12.03012084960938,2
1596230852.050832,91,0,103184.2435944167,-1.46039460940559,1.238395589691446,1.258810485693397,-0.1214899867773056,-0.1876421123743057,0.3318938612937927,-0.07059496641159058,0.02610504627227783,0.1673800349235535,2,0.6700979407467276,0.02979889218331105,-0.1845516162931429,0.7183463068628468,0.2901471555233002,-0.9517259001731873,-0.1001615524291992,-3.537696838378906,-49.33237457275391,12.1937255859375,2
1596230852.083326,92,0,103184.2736934167,-1.440682541650248,1.220381938061627,1.260637363013859,-0.07960651069879532,0.03774271160364151,0.02871094830334187,0.105209618806839,0.05772382020950317,-0.003770887851715088,2,0.6683975085247615,0.02928350087503892,-0.1828790968179981,0.7203765219651913,0.2866621613502502,-0.9522850513458252,-0.104774497449398,-4.090927124023438,-49.28597259521484,11.906494140625,2
1596230852.11107,93,0,103184.3037924167,-1.417336288997666,1.197064156173695,1.26483176600005,-0.3320616185665131,-0.1780105233192444,0.4326596260070801,0.03618913888931274,-0.0274890661239624,0.1324628591537476,2,0.6665387267238915,0.02721847969354396,-0.1808443151697776,0.7226897957193932,0.2804205119609833,-0.9535568356513977,-0.1099705621600151,-3.98272705078125,-49.37763214111328,11.87142944335938,2
1596230852.147719,94,0,103184.3338904167,-1.368296310854754,1.149358614802881,1.269644579106876,-0.3497165441513062,0.004261448979377747,0.146477535367012,-0.1006662249565125,0.08375632762908936,0.008993268013000488,2,0.6623643638822543,0.02457371826322113,-0.1773288220570916,0.7274778055889101,0.270666241645813,-0.9549955129623413,-0.1213391646742821,-4.441482543945312,-49.61575317382812,11.11117553710938,2
1596230852.171382,95,0,103184.3639894167,-1.342565394720223,1.115977828487621,1.268793312836844,-0.2890489399433136,-0.3514055907726288,0.01468913815915585,-0.1597706079483032,-0.09803372621536255,-0.08732956647872925,2,0.6589534749109308,0.02119562473196906,-0.1792554235906395,0.7302044377992659,0.2671962380409241,-0.9547426700592041,-0.130662128329277,-4.68206787109375,-49.67884826660156,10.97705078125,2
1596230852.206697,96,0,103184.3940874167,-1.309676857999786,1.084275011879376,1.262325036479289,-0.3612749576568604,0.1395962834358215,-0.04034418985247612,-0.132262110710144,-0.07919132709503174,0.06350278854370117,2,0.6546117137960643,0.02254795469757173,-0.1797059739255202,0.7339486806325768,0.2683733403682709,-0.9527987837791443,-0.1419501900672913,-4.605827331542969,-49.62673187255859,10.19705200195312,2
1596230852.231454,97,0,103184.4241864167,-1.281951992794288,1.062869256112607,1.255567586227067,-0.3198900520801544,0.2454468160867691,-0.1280563622713089,-0.1213886737823486,0.1459715366363525,0.1229399442672729,2,0.6511002027914529,0.02595287776544125,-0.1786417781306262,0.7372121977482747,0.2708929479122162,-0.9507254958152771,-0.1507899463176727,-4.60235595703125,-49.66648864746094,9.9722900390625,2
1596230852.265255,98,0,103184.4542854167,-1.269247903911254,1.053810796401045,1.246955237007538,-0.262223482131958,0.007133312057703733,-0.2396639585494995,0.003462672233581543,-0.06059795618057251,-0.05473178625106812,2,0.6484497847883858,0.02955374656468812,-0.1796075967347422,0.7391754284148584,0.2766238152980804,-0.9480201601982117,-0.157278910279274,-4.528274536132812,-49.82730102539062,9.428741455078125,2
1596230852.291683,99,0,103184.4843834167,-1.253906242316929,1.044021164803763,1.236997723844198,-0.2567910254001617,0.1377552896738052,-0.08996915072202682,0.1969124674797058,0.01954632997512817,-0.07393908500671387,2,0.6453497510785693,0.03413096146831762,-0.1802114235553992,0.7415406816196337,0.2832177877426147,-0.9448046088218689,-0.1647175550460815,-4.447296142578125,-49.92139434814453,9.257843017578125,2
1596230852.324434,100,0,103184.5144824167,-1.240006452075637,1.022379209219918,1.236722904785289,-0.07427960634231567,-0.5847809314727783,0.1318150460720062,-0.0605563223361969,-0.02557337284088135,-0.06976449489593506,2,0.6431082565515487,0.03066384148297527,-0.1821084858785734,0.743174120534982,0.2798080742359161,-0.9447145462036133,-0.1709429919719696,-3.965187072753906,-50.01198577880859,8.5797119140625,2
1596230852.35185,101,0,103184.5445804167,-1.230311471768403,1.000692293285373,1.23520921330594,-0.09557424485683441,-0.2560026049613953,-0.1011099368333817,-0.08695894479751587,0.08718878030776978,-0.05655515193939209,2,0.6406580498534248,0.02619522473455971,-0.1859287677289605,0.7445141866148302,0.2772389650344849,-0.9442171454429626,-0.1777421534061432,-4.143913269042969,-50.22539520263672,8.455047607421875,2
1596230852.382692,102,0,103184.5746794167,-1.231842950856942,0.9994830175457361,1.231403918451088,-0.1017798408865929,-0.1176530942320824,-0.09280462563037872,0.07142153382301331,-0.03148972988128662,-0.07805073261260986,2,0.6397575949941781,0.02647203219181665,-0.1880512453089424,0.7447456037790369,0.280044287443161,-0.9429571032524109,-0.1800189018249512,-3.962486267089844,-49.96987915039062,8.44671630859375,2
1596230852.412114,103,0,103184.6047784167,-1.221808537287075,0.9525230365415203,1.230902640347669,0.1020573377609253,-0.9138060808181763,0.2141878306865692,0.1200109124183655,0.04793083667755127,0.1005595326423645,2,0.6350022569816756,0.01232502238438166,-0.1994289935021803,0.7462225823580332,0.2716701328754425,-0.9427900910377502,-0.1932404488325119,-3.51409912109375,-49.91114807128906,8.238372802734375,2
1596230852.445687,104,0,103184.6348764167,-1.209896140441801,0.9413673040773155,1.231129409172853,-0.3263184726238251,-0.1670468747615814,-0.04291970655322075,-0.2381460666656494,-0.1168023943901062,0.03929793834686279,2,0.6338711440540706,0.01186648454313799,-0.1984515204943582,0.7474512324729849,0.2693246304988861,-0.9428656697273254,-0.1961331218481064,-3.664955139160156,-49.94525146484375,8.424713134765625,2
1596230852.472365,105,0,103184.6649754167,-1.212530476389161,0.9415733300663713,1.224582628028896,-0.07547366619110107,-0.07047514617443085,-0.2824443578720093,0.002883762121200562,0.0509488582611084,-0.03206139802932739,2,0.6324344978593023,0.01317025830132013,-0.2013255869727089,0.7478776963093968,0.2743499875068665,-0.9406642913818359,-0.1997063010931015,-3.292823791503906,-50.07241058349609,8.09014892578125,2
1596230852.505921,106,0,103184.6950734167,-1.210069304586106,0.9356006657647,1.220064899985204,0.01711972057819366,-0.0163878109306097,0.14643195271492,0.001655042171478271,0.01338988542556763,-0.1124296188354492,2,0.6307908621142416,0.01313423338458231,-0.2036369859395864,0.7486402745100571,0.2765703201293945,-0.9391216635704041,-0.2038607597351074,-3.290107727050781,-50.04805755615234,8.02178955078125,2
1596230852.532394,107,0,103184.7251724167,-1.201603149760485,0.9319889785119454,1.22353885798285,-0.1327619403600693,0.1870796531438828,-0.08856253325939178,-0.1347710788249969,0.0271066427230835,0.04458212852478027,2,0.631162140519932,0.01336278206639141,-0.2005741378968398,0.7491498484631813,0.2732110619544983,-0.9403095841407776,-0.2029115706682205,-3.634925842285156,-50.07382202148438,7.994415283203125,2
1596230852.564982,108,0,103184.7552714167,-1.210443896969907,0.942990424442297,1.213588209565513,-0.0760747417807579,-0.1187412664294243,-0.3251454830169678,-0.005535364151000977,0.01962852478027344,-0.0351603627204895,2,0.6300734647469671,0.01782021834959996,-0.2033758416893512,0.7492182578113951,0.2829858958721161,-0.936876654624939,-0.2053797394037247,-3.489433288574219,-50.24243927001953,7.724273681640625,2
1596230852.592797,109,0,103184.7853694167,-1.208781583438017,0.9358460380820502,1.208276260035873,-0.1089744046330452,-0.1671410650014877,-0.07018951326608658,0.05676695704460144,0.04907345771789551,-0.004003584384918213,2,0.6281138126692709,0.01733539027273429,-0.2065795654075247,0.749998132496323,0.2855139672756195,-0.9350060820579529,-0.2103450447320938,-3.035545349121094,-50.09461975097656,7.63934326171875,2
1596230852.625666,110,0,103184.815468375,-1.204963128509774,0.9283025300216626,1.204822066644566,-0.173643633723259,-0.08668506145477295,0.07879722118377686,0.1567923426628113,-0.06061816215515137,0.03510755300521851,2,0.6265019705770195,0.01678640648390453,-0.208535986558738,0.7508170287370564,0.2865034639835358,-0.9337755441665649,-0.2144269943237305,-2.878013610839844,-50.22379302978516,7.579345703125,2
1596230852.652912,111,0,103184.845566375,-1.17141381343521,0.8928073474886968,1.209547296928477,-0.2174081653356552,-0.215675488114357,0.5296179056167603,-0.01897254586219788,-0.002899289131164551,-0.003123939037322998,2,0.6236989934492642,0.01245144627775926,-0.2056248951794286,0.7540309967382591,0.2752736210823059,-0.9354560971260071,-0.2216890603303909,-3.061004638671875,-50.24696350097656,7.19891357421875,2
1596230852.684415,112,0,103184.875665375,-1.143013533095298,0.8622207921842073,1.215499841692197,-0.07109026610851288,0.01332959905266762,0.08125423640012741,-0.08362108469009399,0.07831829786300659,0.04032367467880249,2,0.6218915749685437,0.007931326712092041,-0.2027156813878682,0.7563689867398899,0.2641323804855347,-0.9375433921813965,-0.2263759225606918,-3.752197265625,-50.07964324951172,7.046112060546875,2
1596230852.71311,113,0,103184.905764375,-1.142495031715753,0.8635182170420276,1.209708592839138,-0.1472342312335968,0.07827730476856232,-0.2194107174873352,-0.03057259321212769,0.007259607315063477,0.01417595148086548,2,0.6205759631585845,0.01033273039738994,-0.20376412771282,0.7571385493708787,0.268548846244812,-0.9355130791664124,-0.2295574098825455,-3.781288146972656,-50.12042999267578,6.849884033203125,2
1596230852.745479,114,0,103184.935862375,-1.13887323227914,0.8606634861594858,1.205613107634712,-0.1218254566192627,-0.04365570098161697,0.1028520911931992,0.06776654720306396,-0.06393277645111084,-0.032795250415802,2,0.6192380468410105,0.01160969664116146,-0.2044401844493975,0.7580326559154674,0.2707953453063965,-0.9340583682060242,-0.2328189164400101,-3.501785278320312,-49.91268920898438,6.678009033203125,2
1596230852.773309,115,0,103184.965961375,-1.119510114653526,0.8437185115470074,1.207055553413491,-0.1181427836418152,0.08957777172327042,0.1585876941680908,-0.03076595067977905,0.03114700317382812,0.01093804836273193,2,0.6177748478485802,0.01073506979272043,-0.2019256242664477,0.7599110542540518,0.2658045291900635,-0.9345725178718567,-0.2364779859781265,-3.439033508300781,-50.21427154541016,6.448028564453125,2
1596230852.807133,116,0,103184.996059375,-1.113265209502616,0.8394119976832539,1.205227788215727,-0.07398059219121933,0.01148917712271214,-0.1212936341762543,-0.09591531753540039,0.05988955497741699,-0.03502571582794189,2,0.6168350536516157,0.01156899847057186,-0.2013921655239499,0.7608034567046441,0.2660549581050873,-0.933920681476593,-0.2387613505125046,-3.57183837890625,-50.09299468994141,6.184234619140625,2
1596230852.833461,117,0,103185.026158375,-1.119497727861428,0.8479569138633585,1.201021775471096,-0.03801076114177704,0.1502927392721176,-0.1083173602819443,0.05698621273040771,-0.009865105152130127,0.03099715709686279,2,0.6166539069870605,0.01414839594071546,-0.2023050368779135,0.7606644671569464,0.2710287570953369,-0.93240886926651,-0.239075556397438,-3.452407836914062,-50.07961273193359,6.231475830078125,2
1596230852.865218,118,0,103185.056257375,-1.110688930216821,0.8423866831827498,1.201636081618766,-0.07281103730201721,0.03528451919555664,0.2217716872692108,-0.04362744092941284,-0.0498473048210144,-0.008878588676452637,2,0.6161883098909324,0.01456078672707822,-0.2004976357607911,0.7615119247669125,0.2692650258541107,-0.9326306581497192,-0.2401998937129974,-3.651329040527344,-50.11592864990234,6.08428955078125,2
1596230852.893656,119,0,103185.086355375,-1.102692244851826,0.8360160619574679,1.202253097149764,-0.01810086704790592,0.09274697303771973,-0.1165565699338913,-0.0897032618522644,0.0731046199798584,0.01695489883422852,2,0.6156539885104043,0.01441411804401718,-0.1992413877071895,0.7622763289588774,0.2673026025295258,-0.9328531622886658,-0.241524800658226,-3.760231018066406,-50.29665374755859,5.91192626953125,2
1596230852.925557,120,0,103185.116454375,-1.111543775163659,0.8487395678434758,1.198518131735899,-0.003555743023753166,0.0938810333609581,-0.09523911774158478,0.08584442734718323,0.009478151798248291,-0.002535998821258545,2,0.6160243414072449,0.01764265018347613,-0.1997381872427856,0.7617790850171355,0.2729667723178864,-0.9315010905265808,-0.2404054999351501,-3.627853393554688,-50.46619415283203,6.0118408203125,2
1596230852.953891,121,0,103185.146552375,-1.108998187548056,0.8479243263869178,1.199001471801309,-0.02910408563911915,0.07788217812776566,0.06953812390565872,0.009100079536437988,-0.04036194086074829,0.005825221538543701,2,0.6160455363280402,0.01797248235885709,-0.1988841904432405,0.7619775055485762,0.2724326848983765,-0.9316768050193787,-0.240329772233963,-3.633903503417969,-50.29898071289062,5.8408203125,2
1596230852.984651,122,0,103185.176651375,-1.12735858638897,0.8623401854394397,1.199685024536679,0.2411396503448486,-0.01428604871034622,-0.45181804895401,-0.1221737265586853,-0.00437396764755249,-0.01625621318817139,2,0.6178260597719992,0.01758978954279483,-0.2012307753387913,0.7599259573608282,0.2753851115703583,-0.9319248795509338,-0.2359631210565567,-3.409156799316406,-50.43154907226562,6.196380615234375,2
1596230853.014351,123,0,103185.206750375,-1.149599177650704,0.8925644057099861,1.181728082618384,-0.4757106006145477,0.634265661239624,-0.5796080231666565,0.06106823682785034,0.007701992988586426,0.09252387285232544,2,0.6166348033950931,0.02763593743814433,-0.2054683342443475,0.759460474815698,0.2953746616840363,-0.9252629280090332,-0.2379955500364304,-3.124153137207031,-50.36925506591797,6.13763427734375,2
