loggingTime,loggingSample,identifierForVendor,motionTimestamp_sinceReboot,motionYaw,motionRoll,motionPitch,motionRotationRateX,motionRotationRateY,motionRotationRateZ,motionUserAccelerationX,motionUserAccelerationY,motionUserAccelerationZ,motionAttitudeReferenceFrame,motionQuaternionX,motionQuaternionY,motionQuaternionZ,motionQuaternionW,motionGravityX,motionGravityY,motionGravityZ,motionMagneticFieldX,motionMagneticFieldY,motionMagneticFieldZ,motionMagneticFieldCalibrationAccuracy
1596231012.542162,1,0,103344.7366429167,2.179375317362512,-1.167886900269404,1.272613729497867,-0.003348957747220993,0.2953054904937744,-0.02350128069519997,-0.05030131340026855,0.02002990245819092,-0.002000153064727783,2,0.622506752674839,0.2342850126861365,0.4432425377626064,0.6009427367308408,-0.2702592015266418,-0.9558719992637634,-0.115191750228405,-21.06459808349609,-44.35208129882812,16.6971435546875,2
1596231012.564989,2,0,103344.7667419167,2.185545974376784,-1.167851393971479,1.275269412882149,0.08108177036046982,0.12505903840065,-0.1119449734687805,-0.07634082436561584,0.05649268627166748,-0.04946345090866089,2,0.621796163238412,0.2372064410172154,0.4442495118632727,0.5997874926434708,-0.2679183781147003,-0.9566488265991211,-0.1142052710056305,-21.19170379638672,-44.15015411376953,16.6041259765625,2
1596231012.593132,3,0,103344.7968409167,2.198912764227835,-1.174308353618531,1.280916842671879,0.1992719322443008,0.2930746674537659,-0.1273444443941116,-0.05605792999267578,-0.001944422721862793,-0.07750654220581055,2,0.621666390619291,0.2415334637749508,0.4444243994543676,0.5980632155645504,-0.2636628746986389,-0.9582783579826355,-0.1103849709033966,-21.22450256347656,-44.50572967529297,16.72616577148438,2
1596231012.626235,4,0,103344.8269399167,2.217814287945244,-1.187287808398854,1.285984304700469,0.2332870662212372,-0.001559748314321041,-0.03349369764328003,0.04422715306282043,-0.02061474323272705,0.001140356063842773,2,0.6222539354663019,0.2454229632770143,0.4443963757291413,0.5958856135903889,-0.260566771030426,-0.9597144722938538,-0.1051352173089981,-21.13653564453125,-44.206787109375,16.88107299804688,2
1596231012.65327,5,0,103344.8570389167,2.227554437769241,-1.204453312718482,1.28702104246829,0.06959860771894455,-0.5786675214767456,0.04980148375034332,0.09224078059196472,0.004475593566894531,-0.01809912919998169,2,0.624860193885306,0.2437301386190484,0.441612735168187,0.5959225853779699,-0.2614038586616516,-0.9600052833557129,-0.1002907156944275,-21.09868621826172,-44.02129364013672,17.01846313476562,2
1596231012.685837,6,0,103344.8871379167,2.236410923160949,-1.220162364497172,1.285394795894592,0.02673347108066082,-0.1921235024929047,-0.05527722835540771,-0.0483248233795166,0.06269800662994385,0.04371362924575806,2,0.627262883389444,0.241220288875427,0.4398564173459584,0.595718412146484,-0.2644124627113342,-0.9595486521720886,-0.09670809656381607,-20.90134429931641,-44.30059051513672,17.13885498046875,2
1596231012.713562,7,0,103344.9172369167,2.236646416151775,-1.22461667157509,1.291669208624309,0.06908521056175232,-0.0783756822347641,-0.233782559633255,-0.02115151286125183,0.02488791942596436,0.0009412765502929688,2,0.6281360860076091,0.2422863379247173,0.4365116291037919,0.5968250404069082,-0.2591723203659058,-0.9612963199615479,-0.09348477423191071,-20.82992553710938,-44.29928588867188,17.43063354492188,2
1596231012.745792,8,0,103344.9473359167,2.237283961541613,-1.227002504000927,1.296846622508615,0.05982360243797302,-0.08439390361309052,-0.05946004018187523,0.04005447030067444,-0.01326018571853638,-0.01954591274261475,2,0.6285088514327012,0.2436862292796016,0.434284837290934,0.5974867344720274,-0.2547051608562469,-0.9627098441123962,-0.09118729084730148,-20.069091796875,-44.22635650634766,17.76910400390625,2
1596231012.773747,9,0,103344.97743675,2.240548515478013,-1.235369061974279,1.298692114180627,0.08223483711481094,-0.1821345686912537,-0.1150007918477058,-0.005621135234832764,0.04542577266693115,-0.006997823715209961,2,0.6298958237982493,0.2428933540846402,0.4320335407029208,0.5979809068890454,-0.2537810802459717,-0.963207483291626,-0.08846814185380936,-20.20755767822266,-44.27751159667969,17.8961181640625,2
1596231012.8057,10,0,103345.00753575,2.242400873555962,-1.240894003081046,1.303619376294794,0.06042823940515518,-0.1134937852621078,-0.169691264629364,-0.02953571081161499,-0.02459359169006348,0.01475429534912109,2,0.6307750967555859,0.2436382007843575,0.4292577682343566,0.5987497558269088,-0.2497735917568207,-0.9645200371742249,-0.08552640676498413,-19.934814453125,-44.243408203125,17.87884521484375,2
1596231012.833961,11,0,103345.03763475,2.243465127238725,-1.244934541348578,1.30855821673489,0.08045367896556854,-0.04920025169849396,-0.1523010581731796,-0.06147593259811401,0.00729525089263916,-0.05849564075469971,2,0.6314156041095772,0.2445794630359968,0.4267066718275734,0.5995138553674513,-0.2456009536981583,-0.9658122062683105,-0.08299044519662857,-19.78358459472656,-44.35765838623047,18.1363525390625,2
1596231012.866488,12,0,103345.06773375,2.252695748883536,-1.251372003533547,1.316130802247951,0.2785143852233887,0.2880927324295044,-0.2909016311168671,-0.1133358180522919,0.04560387134552002,-0.0574568510055542,2,0.6314832693525418,0.2483437076829847,0.4249920020772113,0.5991128103592516,-0.2391788810491562,-0.9677476286888123,-0.07910856604576111,-19.59034729003906,-44.26622009277344,18.23748779296875,2
1596231012.89409,13,0,103345.09783275,2.273524579828281,-1.257754448627167,1.327487449708334,0.2937173843383789,0.5653005242347717,-0.289675384759903,-0.09257650375366211,-0.008336663246154785,-0.06998050212860107,2,0.6298998619208711,0.2571588669198157,0.4255329788482872,0.5966718030722278,-0.2292074412107468,-0.9705461263656616,-0.07419095933437347,-19.46388244628906,-44.62474822998047,18.47479248046875,2
1596231012.926154,14,0,103345.12793175,2.303250939374948,-1.270980917592387,1.337440328836047,0.2764807045459747,0.3904576897621155,-0.2504522502422333,0.07163825631141663,0.07696151733398438,0.06448602676391602,2,0.6284809295009908,0.2662017038632751,0.4269989965859359,0.5931445692311873,-0.2209292650222778,-0.9728958010673523,-0.06829674541950226,-19.31832885742188,-44.25929260253906,18.43295288085938,2
1596231012.95421,15,0,103345.15803075,2.324617364525059,-1.283386678105144,1.34718146185809,0.2251570522785187,0.1153861805796623,-0.2018229216337204,0.1570669710636139,-7.128715515136719e-05,0.118744432926178,2,0.6278268281518931,0.2727687574624847,0.4262889155082163,0.5913618018483715,-0.2126611918210983,-0.9751021862030029,-0.0628613606095314,-19.22635650634766,-44.27072906494141,18.48187255859375,2
1596231013.005703,16,0,103345.18812975,2.342994924529614,-1.303008430013765,1.352286582363033,0.2025983184576035,-0.0912657305598259,-0.07390005141496658,0.143166571855545,-0.03017061948776245,0.02458781003952026,2,0.6292242923581416,0.2745860920632137,0.4239106543111262,0.5907445505370754,-0.2090492844581604,-0.9762215614318848,-0.05735853686928749,-18.85908508300781,-44.23492431640625,18.88861083984375,2
1596231013.014651,17,0,103345.21822875,2.371543237217387,-1.333968889572471,1.354542421223237,0.1514349281787872,-0.1686870455741882,0.007134330458939075,0.09090611338615417,0.0461583137512207,0.003483593463897705,2,0.6317122889516972,0.2752599652594276,0.4218507586477219,0.5892483583021215,-0.208583652973175,-0.9767081141471863,-0.05034307017922401,-18.75879669189453,-44.15443420410156,19.37091064453125,2
1596231013.046154,18,0,103345.24832775,2.396070363367913,-1.364436655536018,1.354782369954928,0.2311324775218964,-0.263210266828537,0.07000283896923065,0.06017827987670898,0.03536152839660645,-0.05501741170883179,2,0.6347343444546589,0.2741414067799643,0.4193486526185013,0.5883074662222055,-0.2097911089658737,-0.9767595529556274,-0.04391760379076004,-18.74217987060547,-43.99837493896484,19.51498413085938,2
1596231013.074724,19,0,103345.27842675,2.439527204869325,-1.411843333932626,1.353273869267642,0.3249908685684204,-0.07829735428094864,0.1417671144008636,0.1475084125995636,-0.02311891317367554,-0.08584499359130859,2,0.6388253605790746,0.2735366921820714,0.4174799163299391,0.5854831556743734,-0.2130912691354752,-0.976435124874115,-0.03415967524051666,-18.69557952880859,-43.74557495117188,19.91351318359375,2
1596231013.10594,20,0,103345.30852575,2.485270158251669,-1.46072332933318,1.347634682198958,0.3171733617782593,-0.2995848059654236,0.2962104082107544,0.1300582885742188,0.0473630428314209,0.03321439027786255,2,0.6433251460766584,0.2719870448351886,0.4168934721892597,0.5816835903139368,-0.2199753075838089,-0.9752026200294495,-0.02431160770356655,-18.76116943359375,-43.56207275390625,20.17218017578125,2
1596231013.134907,21,0,103345.33862575,2.526433999842737,-1.515191108892207,1.340796717858631,0.2130724787712097,-0.6544262170791626,0.2183526754379272,-0.01762691140174866,-0.001496553421020508,0.04239308834075928,2,0.6498364069492544,0.2671657262309029,0.4132862147861501,0.5792493715950771,-0.227625697851181,-0.9736664891242981,-0.01267023757100105,-19.0167236328125,-43.05165100097656,21.09561157226562,2
1596231013.165896,22,0,103345.36872475,2.556889914400515,-1.562499476493794,1.334234342066386,0.3171129822731018,-0.3864012956619263,0.205033004283905,0.0395028293132782,0.07513648271560669,-0.1213589906692505,2,0.6563396383018621,0.261239460937277,0.4085742140653502,0.5779614690171169,-0.2343542128801346,-0.9721494317054749,-0.001944446470588446,-18.91092681884766,-43.071044921875,21.34915161132812,2
1596231013.195055,23,0,103345.39882375,2.599967605708521,-1.613429689633,1.329590360149736,0.2912452816963196,-0.2564695477485657,0.1080002933740616,-0.04150772094726562,0.01344537734985352,-0.0586857795715332,2,0.6617279673924104,0.2592422765291946,0.4055346960133489,0.5748488571014034,-0.2386570423841476,-0.9710506200790405,0.01018092129379511,-18.72812652587891,-42.55048370361328,22.2552490234375,2
1596231013.226288,24,0,103345.42892275,2.640858143867984,-1.662453086244273,1.32640129309605,0.418261706829071,-0.4142078459262848,0.04461780190467834,-0.08503079414367676,-0.01035773754119873,-0.003617405891418457,2,0.6668116353913977,0.257751516324298,0.4018635436555681,0.5722170774101403,-0.2409549355506897,-0.9702838659286499,0.02214720286428928,-18.78839111328125,-42.50623321533203,22.56954956054688,2
1596231013.255357,25,0,103345.45902175,2.681751999101619,-1.713499599508888,1.324614430949118,0.2540260851383209,-0.1666175127029419,-0.004851235076785088,-0.1213155090808868,-0.01607722043991089,0.00960695743560791,2,0.6720385055962413,0.2563083110079138,0.3969365426953858,0.5701858562360895,-0.24122653901577,-0.9698499441146851,0.03465940803289413,-18.58779144287109,-42.20082092285156,23.30877685546875,2
1596231013.285778,26,0,103345.48912075,2.721886069142039,-1.750899034094242,1.323990561101297,0.317601352930069,0.1868497729301453,-0.04320685565471649,-0.09871390461921692,-0.01403427124023438,-0.01775002479553223,2,0.6743893912418485,0.2589990606264833,0.3959182974047165,0.5668926730748314,-0.2403568625450134,-0.9696977138519287,0.04376312717795372,-18.36534881591797,-41.94903564453125,23.57687377929688,2
1596231013.31568,27,0,103345.51921975,2.762202397624836,-1.778538176703113,1.324529128444699,0.3746910691261292,0.5345861315727234,-0.1475450545549393,-0.121638685464859,0.0297238826751709,-0.03424584865570068,2,0.6744949288780736,0.2649474812579228,0.3978468683340799,0.56265221225663,-0.2385448217391968,-0.9698292016983032,0.05028115212917328,-18.48571014404297,-41.92166900634766,23.882568359375,2
1596231013.346557,28,0,103345.54931875,2.804472008440506,-1.805429275304139,1.329420757693056,0.2117797881364822,0.5151882767677307,-0.2645055949687958,-0.05410832166671753,0.01851588487625122,0.09469664096832275,2,0.6732269317923462,0.2730423293735184,0.3994463879057301,0.5591565782708197,-0.2324893027544022,-0.9710100889205933,0.0555732324719429,-18.57952117919922,-41.58773040771484,24.08782958984375,2
1596231013.375613,29,0,103345.57941775,2.841484453281688,-1.82115576252625,1.332279531855155,0.2834621369838715,0.7791009545326233,-0.04108230397105217,0.09834638237953186,-0.03447544574737549,0.07875466346740723,2,0.6706739016445096,0.2818931324554698,0.4037915804164914,0.5546938081901984,-0.2288962006568909,-0.9716894626617432,0.05853443965315819,-18.85381317138672,-41.47027587890625,24.1544189453125,2
1596231013.423351,30,0,103345.60951675,2.855585214722206,-1.813871230841176,1.330321843385978,-0.01070415787398815,0.5174386501312256,0.1083049029111862,0.1778234243392944,-0.02255618572235107,0.2363240718841553,2,0.6675841547056502,0.2880852011328473,0.4105804328989722,0.5502383341475665,-0.2311629354953766,-0.9712250828742981,0.05732337385416031,-19.13142395019531,-41.32077789306641,24.25405883789062,2
1596231013.435854,31,0,103345.63961575,2.835051723751181,-1.783156059874264,1.323521403409813,-0.2029018998146057,0.2788881361484528,0.4493139684200287,0.4555229246616364,-0.03116369247436523,0.2989470958709717,2,0.6655625891655924,0.2877854872878512,0.4167770729449023,0.5481815263151353,-0.2392650842666626,-0.9695830345153809,0.05158809199929237,-19.78646087646484,-41.33029937744141,23.878173828125,2
1596231013.48218,32,0,103345.66971475,2.80248550208938,-1.75781241351759,1.305272151323432,-0.1675958931446075,-0.9248330593109131,0.7610381841659546,0.4539840519428253,0.07330560684204102,0.1825516223907471,2,0.6683921202397292,0.2786524115971788,0.4206992505282119,0.5464586867013836,-0.2578400671482086,-0.9649550914764404,0.04879038408398628,-20.67453765869141,-41.07489013671875,23.49273681640625,2
1596231013.496084,33,0,103345.69981375,2.747351838090592,-1.748244866706279,1.285892723764218,-0.4469970762729645,-1.883079051971436,0.7340362071990967,0.04779377579689026,0.0301399827003479,0.0836946964263916,2,0.6772980437841204,0.2570487334143195,0.4135454433914055,0.5515194476900582,-0.2766522765159607,-0.9596887230873108,0.04961338266730309,-20.52932739257812,-41.05258178710938,23.70492553710938,2
1596231013.542456,34,0,103345.72991275,2.681349115789132,-1.73298966447332,1.26575367441566,-0.6332651972770691,-1.233829140663147,0.8280477523803711,0.1349914073944092,0.04034841060638428,0.1435859203338623,2,0.6856314826764398,0.2327207307002717,0.4055255292386587,0.5579423989772463,-0.2963926196098328,-0.9538341164588928,0.04849893599748611,-20.36164093017578,-41.00146484375,24.08547973632812,2
1596231013.556338,35,0,103345.76001275,2.598210338083671,-1.69907951701679,1.242432391117037,-0.9753756523132324,-1.966671586036682,0.8949075937271118,0.07318213582038879,-0.04182887077331543,0.1290161609649658,2,0.6914107155055546,0.2063490529747785,0.3999673329076476,0.565152849190955,-0.3198458850383759,-0.9465712308883667,0.04125741869211197,-20.39498901367188,-41.02467346191406,24.18441772460938,2
1596231013.604303,36,0,103345.79011175,2.497243552603634,-1.66417864136823,1.21677848433991,-0.9982286691665649,-1.911887407302856,1.1867436170578,0.1902459859848022,-0.1793612241744995,0.1039830446243286,2,0.6973178503913331,0.172947208534876,0.3902919108836468,0.5757687341353275,-0.3451598286628723,-0.9379874467849731,0.03232584148645401,-19.99146270751953,-41.26160430908203,23.8819580078125,2
1596231013.616657,37,0,103345.82021075,2.408672132511221,-1.63311080292147,1.177272565218921,-0.9277728796005249,-1.319962859153748,1.4177006483078,0.3494000434875488,-0.1107779145240784,0.1430641412734985,2,0.7021133383545596,0.1377542489426974,0.3866908003034342,0.5818341433551819,-0.3827012777328491,-0.9235635995864868,0.02387874573469162,-20.28520965576172,-41.26383972167969,23.8441162109375,2
1596231013.665433,38,0,103345.85030975,2.302195643333368,-1.584871552294521,1.116889044907557,-2.119440078735352,-3.223976612091064,3.34238076210022,0.816688060760498,-1.412540435791016,-0.865869402885437,2,0.7030738810403887,0.09366362266025968,0.3900261425895382,0.5871916164205091,-0.4384374022483826,-0.8987407088279724,0.006171512883156538,-21.77534484863281,-40.91075134277344,23.0186767578125,2
1596231013.676655,39,0,103345.88040875,2.159213968017094,-1.60691307428211,1.002388397923685,-2.674423933029175,-4.96175479888916,3.954463243484497,1.68992018699646,-1.715587735176086,0.0900115966796875,2,0.7139365957779782,-0.003618378285478008,0.3737414858683392,0.5921140067471349,-0.5379404425621033,-0.8427590131759644,0.01943711005151272,-22.51676177978516,-40.30465698242188,22.86026000976562,2
1596231013.723033,40,0,103345.91050775,1.997298109804372,-1.652503769101956,0.8685147634679613,-2.956735372543335,-6.456965446472168,5.112854480743408,0.8414840698242188,-0.04630225896835327,0.7938927412033081,2,0.7152586002069963,-0.1215142102398744,0.3493114980728145,0.5929764394251338,-0.6438062191009521,-0.7633703947067261,0.05272113531827927,-23.95144653320312,-39.5081787109375,23.48007202148438,2
1596231013.736862,41,0,103345.94060675,1.835289869171873,-1.732441327112643,0.7296847354578122,-3.613892078399658,-5.670932292938232,4.50754976272583,-0.4501200318336487,1.70175564289093,1.272199273109436,2,0.7056841131858984,-0.2489814900296134,0.3153400493861831,0.5835913903502534,-0.7356678247451782,-0.6666346788406372,0.1199636980891228,-24.72657012939453,-38.701171875,23.96591186523438,2
1596231013.784339,42,0,103345.970705625,1.694797067074428,-1.790172129750975,0.6654425737727047,-2.089753150939941,-4.484682559967041,1.235272288322449,-0.6536067128181458,0.7488328218460083,0.04124951362609863,2,0.688001335121414,-0.33503593449464,0.2744111783002237,0.5823263060882947,-0.7677909731864929,-0.6174073219299316,0.1711898297071457,-25.13523864746094,-38.28775787353516,23.85617065429688,2
1596231013.797115,43,0,103346.000804625,1.61798757694541,-1.838601282166634,0.6526248611825827,-2.245080947875977,-1.6688472032547,1.251907348632812,0.106928825378418,-0.8802605867385864,0.1753553152084351,2,0.6791855440454125,-0.3792419172401918,0.239680178639105,0.5808924202111734,-0.7661721110343933,-0.6072739362716675,0.2102348655462265,-24.12184906005859,-38.46279907226562,24.20254516601562,2
1596231013.841906,44,0,103346.030903625,1.508883435870197,-1.802517764733372,0.6081555188993866,-2.304290533065796,-0.357035219669342,2.728593349456787,0.6797393560409546,-0.306660532951355,0.04082822799682617,2,0.6477859198849943,-0.4178660300300448,0.2344857588208026,0.5922650554144493,-0.7987680435180664,-0.5713546872138977,0.1884772330522537,-25.07050323486328,-39.38005065917969,22.28897094726562,2
1596231013.857373,45,0,103346.061002625,1.420649517150152,-1.747404774066009,0.5529389591780183,-1.883212804794312,0.5761696100234985,1.375052213668823,0.3820388317108154,0.3401563167572021,0.03959167003631592,2,0.6138284771977487,-0.4449383416683072,0.2440656582983272,0.6047119585062548,-0.8377479910850525,-0.525190532207489,0.1495110541582108,-26.57132720947266,-38.96035003662109,20.85858154296875,2
1596231013.903956,46,0,103346.091101625,1.345542207519107,-1.699457504147421,0.5552085012249927,-2.525084495544434,0.007243691943585873,-0.5182896256446838,0.1175194382667542,0.03469419479370117,0.08960044384002686,2,0.5916352109315534,-0.4521997420740905,0.2346607854963487,0.6248339971345416,-0.8427667021751404,-0.5271204710006714,0.1090336591005325,-28.81363677978516,-39.11009979248047,17.43759155273438,2
1596231013.917618,47,0,103346.121200625,1.238289849920036,-1.645045007110697,0.5795727194887826,-3.374812364578247,-0.1777896583080292,-0.3466977179050446,0.1976819038391113,-0.2240782380104065,0.02147912979125977,2,0.5659034524589546,-0.4591149933625409,0.2078432059948741,0.6525091370804326,-0.8343918323516846,-0.5476664900779724,0.06206658855080605,-28.39178466796875,-41.24877166748047,13.1212158203125,2
1596231013.964294,48,0,103346.151299625,1.117877394397885,-1.593435727074308,0.59539036678381,-3.295419931411743,-1.24619472026825,-0.585418701171875,0.03545922040939331,0.3446433544158936,-0.2038544416427612,2,0.5363526532865037,-0.4708470555549176,0.1765731706294882,0.677828201236675,-0.8277177810668945,-0.5608319640159607,0.01874223724007607,-27.99392700195312,-42.19312286376953,10.68804931640625,2
1596231013.977765,49,0,103346.181399625,0.9965579195455047,-1.602029123114888,0.6308448962153945,-3.398135423660278,-4.010729789733887,-1.70704460144043,-0.1544741988182068,0.7896887063980103,0.002761363983154297,2,0.5158946051079414,-0.4964488027858341,0.1205384250276492,0.6876497190790234,-0.8071359992027283,-0.5898272395133972,0.02521731518208981,-26.04899597167969,-43.94853973388672,7.1824951171875,2
1596231014.02716,50,0,103346.211498625,0.8701369908597035,-1.667863344343829,0.697983352693231,-3.369576215744019,-4.535699367523193,-2.092242956161499,-0.05775558948516846,0.5606577396392822,0.5845050811767578,2,0.5016917729593133,-0.5342569243890755,0.03649406834522928,0.6793697002216016,-0.7625334858894348,-0.6426739692687988,0.07425019145011902,-23.85635375976562,-45.26697540283203,6.228851318359375,2
1596231014.037876,51,0,103346.241597625,0.7536921869886366,-1.680661934937634,0.7671251304607717,-2.828860282897949,-1.595177888870239,-1.868801593780518,-0.4589001536369324,-0.08801257610321045,0.7739243507385254,2,0.4863545218784485,-0.5503874987692514,-0.03150008665552034,0.6778943422419231,-0.7155687212944031,-0.6940684914588928,0.07893423736095428,-19.78657531738281,-47.22951507568359,3.180419921875,2
1596231014.085928,52,0,103346.271696625,0.6367033517966285,-1.607500025146247,0.8287358138524185,-2.93292760848999,0.4408227503299713,-1.830656290054321,-0.3341134786605835,-0.08609640598297119,0.5557212829589844,2,0.4716555928336686,-0.5384612830898622,-0.07645748895953694,0.6940857140417335,-0.6753533482551575,-0.7370775938034058,0.02479910291731358,-18.12416076660156,-47.88420104980469,0.902862548828125,2
1596231014.09807,53,0,103346.301795625,0.5312542722722369,-1.540196162155189,0.8844980471967823,-1.185437321662903,-1.98201310634613,-1.758277654647827,0.4033793210983276,0.433013916015625,-0.3100193738937378,2,0.4616231375077235,-0.5265076106193688,-0.1171932586460895,0.7042440794192558,-0.6333814859390259,-0.7735970020294189,-0.0193876288831234,-14.67423248291016,-48.54261016845703,-3.833740234375,2
1596231014.141655,54,0,103346.331894625,0.5468400257345288,-1.653855031755056,0.9108702593623205,1.129350900650024,-3.781397342681885,0.4859167039394379,0.5829036235809326,0.3502249717712402,1.041414022445679,2,0.4652243924075645,-0.5558749244285377,-0.1474366188067033,0.6729278711362031,-0.6109452247619629,-0.7900375723838806,0.05086133256554604,-13.55634307861328,-48.94761657714844,-3.59320068359375,2
1596231014.158237,55,0,103346.361993625,0.4860893153346871,-1.69929203130556,0.8515025651995409,-1.605814456939697,-2.135717153549194,2.446710348129272,-0.8078551292419434,-0.04063284397125244,0.2295984029769897,2,0.4292825302648842,-0.5982725704104919,-0.1563595275229153,0.658284406732721,-0.6534221768379211,-0.7522712349891663,0.0844271183013916,-15.91940307617188,-48.47449493408203,-2.61053466796875,2
1596231014.204045,56,0,103346.392092625,0.4877404575856844,-1.715965325747545,0.8359362431359747,0.4006883502006531,1.242860913276672,-1.456720471382141,-1.205056548118591,0.7675418853759766,0.223375678062439,2,0.4245382774145274,-0.606846953908464,-0.1536772453407563,0.6541311647847994,-0.6634312868118286,-0.7419245839118958,0.09699194878339767,-17.63133239746094,-48.06399536132812,-3.0657958984375,2
1596231014.218602,57,0,103346.422191625,0.4993600243707236,-1.69000576040388,0.9003366634171044,0.3184264302253723,0.8447415232658386,-2.30035662651062,-0.1701163053512573,0.07178282737731934,-0.1568644046783447,2,0.4462513236581475,-0.5812119180775795,-0.167699446465488,0.6594919426355849,-0.616936981678009,-0.7835361361503601,0.07389507442712784,-14.84088897705078,-48.75041198730469,-2.93585205078125,2
1596231014.26583,58,0,103346.452290625,0.5215492150907909,-1.685356917535542,0.9446433632118533,-0.0690312534570694,0.4841831922531128,-0.6166517734527588,0.6936595439910889,-0.4080992937088013,-0.116385817527771,2,0.4639012679208879,-0.5641722504516438,-0.1753184956544986,0.6601278835217287,-0.5821907520294189,-0.8102880120277405,0.06698942929506302,-13.03455352783203,-49.24891662597656,-2.966766357421875,2
1596231014.278747,59,0,103346.482389625,0.5206798752226586,-1.68454732750747,0.9499612331778384,-0.00368061475455761,-0.5262092351913452,-0.05685290694236755,0.4804729819297791,-0.1875591278076172,-0.2859741449356079,2,0.465016361185872,-0.5628266146693025,-0.1773316572916015,0.6599542002283187,-0.5779553055763245,-0.8133929371833801,0.06602802872657776,-11.89557647705078,-49.74404907226562,-2.952239990234375,2
1596231014.32473,60,0,103346.512488625,0.520496318411929,-1.706135622739482,0.9575642146435652,-0.004002577625215054,-0.6909866333007812,-0.3730155527591705,0.1639771461486816,-0.2831815481185913,-0.1148364543914795,2,0.4648310122348718,-0.5681181006849249,-0.1851544404351508,0.6533696912349966,-0.5702512264251709,-0.8177921772003174,0.07765208929777145,-11.80382537841797,-49.71710205078125,-3.082275390625,2
1596231014.338918,61,0,103346.542587625,0.5234352373136345,-1.71697343390577,0.9611556465766473,0.1295017302036285,0.1269188523292542,0.1993778347969055,0.4219049215316772,-0.1917359828948975,0.01535379886627197,2,0.4655038267502802,-0.5700928523752862,-0.188019615175914,0.6503453841934218,-0.5664668083190918,-0.8198537826538086,0.08339934796094894,-11.41959381103516,-49.76914215087891,-2.751953125,2
1596231014.386664,62,0,103346.572686625,0.526753152493332,-1.716200117717531,0.9502234370653877,0.03506713360548019,-0.01944922283291817,0.4204871654510498,0.1830627918243408,-0.1831775307655334,0.08783495426177979,2,0.4639519836247131,-0.5717307086691623,-0.1827864613059011,0.6515072779817687,-0.5753651261329651,-0.8135454654693604,0.08425489068031311,-11.9501953125,-49.54420471191406,-2.735748291015625,2
1596231014.399065,63,0,103346.602785625,0.5229731254761478,-1.715687387805457,0.9398654440675031,-0.05170261114835739,0.06916722655296326,0.1901141703128815,-0.2133175134658813,-0.1052067875862122,0.05515205860137939,2,0.4604649350419008,-0.5749418100009944,-0.1801304537517423,0.6518951061168704,-0.5837159752845764,-0.8074787259101868,0.08517207950353622,-12.24176788330078,-49.49734497070312,-2.7105712890625,2
1596231014.444764,64,0,103346.632884625,0.5182210217976188,-1.703063097705906,0.9397172239054069,-0.1314732879400253,0.3861361742019653,-0.09145113080739975,-0.2154960036277771,-0.007349252700805664,0.05576241016387939,2,0.460199563623762,-0.5719462371603498,-0.1787236770058701,0.6550969065551724,-0.5848633050918579,-0.8073912858963013,0.07781227678060532,-12.25727081298828,-49.23456573486328,-2.650970458984375,2
1596231014.459334,65,0,103346.662983625,0.5090661235019648,-1.68033457164134,0.9442854765304466,-0.2315651476383209,0.6444692015647888,-0.1885643750429153,-0.1825608015060425,0.03220963478088379,0.1293905973434448,2,0.4607324451018202,-0.5654854316328839,-0.1781501313830132,0.6604653074481301,-0.5828078985214233,-0.8100782036781311,0.06409631669521332,-12.33472442626953,-49.45215606689453,-2.946624755859375,2
1596231014.502095,66,0,103346.693082625,0.4988194246183335,-1.6475372148359,0.9549723490055905,-0.1930878758430481,1.08236300945282,-0.476194441318512,-0.02907073497772217,-0.001935958862304688,0.1492321491241455,2,0.4634310842805701,-0.5544130830513421,-0.1777882746739734,0.6680189338761298,-0.5759316682815552,-0.8162977695465088,0.04428447410464287,-11.54225921630859,-49.36048126220703,-3.682403564453125,2
1596231014.519579,67,0,103346.723182625,0.4910181263961345,-1.601872834863565,0.9685390099832005,-0.1620121896266937,1.462486267089844,-0.3077737987041473,0.1976515054702759,-0.1490508913993835,0.08804142475128174,2,0.468776063204586,-0.5376337729771264,-0.1745342960128929,0.6787759893241514,-0.5662307739257812,-0.8240589499473572,0.01760214194655418,-11.03232574462891,-49.45980072021484,-3.960052490234375,2
1596231014.565046,68,0,103346.753281625,0.4851187312198469,-1.550864452732435,0.9720703867480871,-0.01509405300021172,1.597777128219604,0.04028350859880447,0.2574836015701294,-0.2204380035400391,0.09406614303588867,2,0.4724824462486482,-0.5207148928754755,-0.1657669434161482,0.6914751077480003,-0.5634788274765015,-0.8260543346405029,-0.01123267691582441,-10.36302185058594,-49.57296752929688,-4.538726806640625,2
1596231014.579757,69,0,103346.783380625,0.4926632337752488,-1.507979595945373,0.9687301021906022,0.1681085675954819,1.63785982131958,0.1416591852903366,0.1920591592788696,-0.2106170654296875,0.2770470976829529,2,0.4769180932263628,-0.5047502362050409,-0.1518281582428848,0.7033666659228641,-0.5652297735214233,-0.8241671919822693,-0.03555266186594963,-10.32841491699219,-49.47819519042969,-4.67083740234375,2
1596231014.623808,70,0,103346.813479625,0.5066901969991252,-1.464322454620515,0.9675271777897576,0.4602424800395966,2.217176675796509,-0.05944728851318359,0.02506113052368164,0.05639207363128662,0.57249915599823,2,0.4832016893894629,-0.486178803354811,-0.1359730622545976,0.7153026171998611,-0.564125120639801,-0.8234853148460388,-0.06029259786009789,-10.10935974121094,-49.71617126464844,-4.845977783203125,2
1596231014.639886,71,0,103346.843578625,0.5348085360213691,-1.40487469063112,0.9758073522047874,0.7214969992637634,3.318137884140015,-0.3137159943580627,-0.1956467628479004,0.2266688346862793,0.6639106273651123,2,0.4958793801378604,-0.4558697040388354,-0.1139567620860273,0.7302741723359283,-0.5528021454811096,-0.8281546831130981,-0.0925729051232338,-9.642219543457031,-49.62602233886719,-4.638214111328125,2
1596231014.683604,72,0,103346.873677625,0.5998589626780239,-1.33466502551219,0.9922576115709203,1.877680063247681,4.932830810546875,-0.2559126615524292,-0.08077645301818848,0.4062669277191162,0.5291075110435486,2,0.5180207919752577,-0.4095049142190664,-0.07736553018896322,0.7469772043670694,-0.5316277742385864,-0.8372625708580017,-0.1279203742742538,-8.387954711914062,-49.82279968261719,-3.600189208984375,2
1596231014.700085,73,0,103346.903776625,0.718958719510843,-1.248596613289484,1.02136316131794,2.782984018325806,7.584500789642334,-0.531617283821106,-0.6162613034248352,0.4241917133331299,0.4594725370407104,2,0.5506208320787841,-0.3378427449999398,-0.018425948725873,0.7631118067989372,-0.4953321516513824,-0.8528206348419189,-0.1653579622507095,-7.902275085449219,-50.17128753662109,-2.179718017578125,2
1596231014.741141,74,0,103346.933875625,0.876644287222052,-1.157421150655713,1.076074938657963,2.861377000808716,6.509437084197998,-0.6558020710945129,-0.2415076494216919,-0.1904390454292297,0.4800001978874207,2,0.587789968129925,-0.2431900753389992,0.05132571636277949,0.7698879564684926,-0.4347957074642181,-0.8801010251045227,-0.1907230764627457,-6.277481079101562,-50.51436614990234,1.888092041015625,2
1596231014.760237,75,0,103346.9639745,1.014301653754369,-1.12889568033428,1.103121450587962,2.150597810745239,3.72799015045166,0.9114817976951599,0.7054823637008667,-0.1495957970619202,0.1806468963623047,2,0.6082972918586064,-0.1832417680449119,0.1044599811381451,0.7651700654049045,-0.4075076878070831,-0.8926188945770264,-0.1927937120199203,-6.000564575195312,-50.27922058105469,4.102447509765625,2
1596231014.803439,76,0,103346.9940735,1.203395601815358,-1.215077164699579,1.094223908576226,2.800150871276855,2.202154159545898,1.603617548942566,0.3697677850723267,0.2011300921440125,-0.1695381999015808,2,0.6280754737878256,-0.160126180181145,0.1520995120487131,0.7461545324453858,-0.4300177097320557,-0.8885725140571594,-0.1597616076469421,-8.435569763183594,-49.56806945800781,7.90667724609375,2
1596231014.820811,77,0,103347.0241725,1.401571270132606,-1.306734831036302,1.078400504881821,2.63264799118042,3.677284479141235,1.075862407684326,-0.9286524653434753,-0.06143790483474731,0.1264086365699768,2,0.6479700343596329,-0.1357999934648093,0.2008130043350712,0.7220577737617953,-0.4563525021076202,-0.8812028169631958,-0.1233863905072212,-10.17933654785156,-49.15566253662109,10.20291137695312,2
1596231014.866516,78,0,103347.0542715,1.568341104440751,-1.31109464762425,1.07858799431661,2.493013858795166,5.498801708221436,0.4066833853721619,-0.4760487079620361,0.08057409524917603,0.2656587958335876,2,0.6576194079209893,-0.0828258894983972,0.2587596926825104,0.7026521737841713,-0.4567263722419739,-0.881291389465332,-0.1213531717658043,-13.70459747314453,-47.5958251953125,13.68936157226562,2
1596231014.880719,79,0,103347.0843705,1.710971025913249,-1.2840651305394,1.081659677301406,1.761788606643677,4.252190113067627,0.69149249792099,0.3781439363956451,-0.2003223299980164,0.1543501615524292,2,0.6579592939573011,-0.02542475368907338,0.3160907898936102,0.6830300248298905,-0.4506814777851105,-0.8827388286590576,-0.1328863054513931,-17.71302032470703,-45.9881591796875,15.019775390625,2
1596231014.92535,80,0,103347.1144695,1.825727598894222,-1.287637985984091,1.071755590795814,1.680721163749695,2.252374887466431,0.8176416158676147,0.5727946758270264,-0.1147365570068359,-0.05802458524703979,2,0.6580938006378791,0.007540568274217618,0.3567309253047928,0.6630226155211685,-0.4595256745815277,-0.8780420422554016,-0.1337113827466965,-19.38816070556641,-45.4595947265625,15.5013427734375,2
1596231014.940761,81,0,103347.1445685,1.94124237502336,-1.33898394238188,1.07157699576783,1.857051372528076,1.264359593391418,0.07726645469665527,0.2763752937316895,0.07644593715667725,-0.09988439083099365,2,0.6664586974993475,0.02897315217955404,0.377481582349851,0.6422625345184974,-0.4659350216388702,-0.8779565691947937,-0.1099867224693298,-21.38842010498047,-43.96781921386719,16.89547729492188,2
1596231014.984465,82,0,103347.1746675,2.053948542766405,-1.399277557465586,1.092726897653255,1.733855485916138,1.496248006820679,-0.7279388904571533,0.01673981547355652,-0.01846933364868164,0.1079792976379395,2,0.6765045511526382,0.05549562086693111,0.3862754977767538,0.6245424129777614,-0.4533155262470245,-0.887884795665741,-0.0785236582159996,-21.70761871337891,-43.34272766113281,18.00631713867188,2
1596231015.001082,83,0,103347.2047665,2.135119968347249,-1.41104160737635,1.129259161202661,1.097832679748535,2.411588430404663,-1.163086771965027,0.03890985250473022,-0.204289436340332,0.1854073405265808,2,0.6763292201691589,0.0926811774683205,0.3960509439801963,0.614111363708494,-0.421888530254364,-0.9040958285331726,-0.06797797232866287,-21.85105895996094,-42.73636627197266,19.21127319335938,2
1596231015.044443,84,0,103347.2348655,2.185118438141795,-1.38019317251061,1.172031117733516,0.6765097379684448,2.784808158874512,-1.455351829528809,0.3536659181118011,-0.1499819755554199,0.2074546813964844,2,0.6671692079913787,0.1345552439741171,0.4083977667329185,0.6082692441003527,-0.3812491893768311,-0.921541154384613,-0.07356026768684387,-21.67082977294922,-42.79712677001953,19.19302368164062,2
1596231015.061304,85,0,103347.2649645,2.211925049667636,-1.32509782271072,1.219953497279762,0.8576007485389709,2.381229400634766,-1.391384363174438,0.4875265657901764,0.02313721179962158,-0.09586155414581299,2,0.6531623963536242,0.17770865303188,0.419713547479777,0.6046811029597934,-0.3333680927753448,-0.9390833973884583,-0.08359703421592712,-21.40258026123047,-43.46533203125,18.18026733398438,2
1596231015.10263,86,0,103347.2950635,2.286069957754239,-1.327364649940324,1.266370867573174,1.31787633895874,2.212472677230835,-1.31224000453949,0.2275762557983398,0.04998326301574707,0.1334017515182495,2,0.6452176377581798,0.2181047194048092,0.4265963706230927,0.5950968459590298,-0.29090815782547,-0.95401930809021,-0.07224906235933304,-21.12758636474609,-43.75141906738281,18.48196411132812,2
1596231015.121523,87,0,103347.3251625,2.358061920251962,-1.320141607092371,1.317223542084959,0.6244701743125916,3.026264429092407,-1.600543975830078,0.3287814557552338,-0.02627456188201904,0.4293298125267029,2,0.6327802586939509,0.261681284985377,0.4341069373921402,0.5853746114537643,-0.2430254369974136,-0.968022346496582,-0.06222409754991531,-20.27998352050781,-43.45592498779297,18.51193237304688,2
1596231015.165996,88,0,103347.3552615,2.350765530613432,-1.207912204079185,1.365108274630859,0.3446508049964905,3.784658908843994,-1.436940908432007,0.5993714928627014,0.03508287668228149,0.1973614692687988,2,0.606655626097759,0.3093848530533494,0.4514267294842477,0.576596897091823,-0.1909404397010803,-0.9789206981658936,-0.07249993085861206,-20.15772247314453,-43.85697937011719,17.98654174804688,2
1596231015.181777,89,0,103347.3853605,2.289122128927299,-1.058464485175496,1.408412183614308,0.193148210644722,1.450463891029358,-1.442828178405762,0.4613279402256012,0.1047463417053223,-0.0682978630065918,2,0.5814059765420894,0.3497717521056697,0.4638615201077465,0.5696134491486664,-0.1409143358469009,-0.9868446588516235,-0.07925362139940262,-19.83592224121094,-44.84453582763672,16.37698364257812,2
1596231015.224606,90,0,103347.4154595,2.250350503073381,-1.006938749694141,1.435372535589573,0.3535280823707581,-0.3941550552845001,-0.006738906260579824,0.7936214208602905,-0.1892642974853516,-0.2250131964683533,2,0.5762461544163058,0.3631278972873881,0.4586547634284533,0.5707140250252086,-0.1141117215156555,-0.990844190120697,-0.07215700298547745,-18.96089935302734,-45.01279449462891,16.10440063476562,2
1596231015.241864,91,0,103347.4455595,2.310965870218218,-1.122012875361387,1.423236987362214,0.07413846254348755,-3.028576135635376,0.5187156200408936,0.6388281583786011,-0.3004047870635986,-0.179907500743866,2,0.5917702622978198,0.3433848512380003,0.4465262474510656,0.576636074618917,-0.1324657201766968,-0.9891328811645508,-0.06378959864377975,-18.63533782958984,-44.97951507568359,16.95013427734375,2
1596231015.287444,92,0,103347.4756585,2.435876926028601,-1.311429135960534,1.42547980129727,0.4842248558998108,-0.4479049444198608,-0.1100102737545967,0.2182674407958984,-0.03736245632171631,0.4414037466049194,2,0.6119942421439023,0.3269462756739998,0.4249383887582202,0.5813748108828583,-0.1399630308151245,-0.9894601106643677,-0.03713836148381233,-18.00250244140625,-44.79833221435547,18.00381469726562,2
1596231015.302031,93,0,103347.5057575,2.455247378858735,-1.328414613333508,1.421954370118587,0.2694216072559357,-0.7113425135612488,0.3186896443367004,-0.4914111495018005,-0.0003800392150878906,-0.2842843532562256,2,0.6127484013064608,0.3267154558804687,0.4264939551525644,0.5795683311747537,-0.1439591199159622,-0.9889434576034546,-0.03559281677007675,-17.66938018798828,-44.39628601074219,18.96737670898438,2
1596231015.34322,94,0,103347.5358565,2.579722000447399,-1.463160955870188,1.423969428060937,0.5611197948455811,0.4295928180217743,-0.2020046561956406,0.1079135537147522,0.1600313186645508,0.05750358104705811,2,0.6207188103776382,0.3268788383845249,0.4202529377857868,0.575539749648257,-0.1454542726278305,-0.989240288734436,-0.01571676693856716,-17.49020385742188,-44.09385681152344,19.97650146484375,2
1596231015.36257,95,0,103347.5659555,2.666628138953624,-1.552434956357547,1.423613779175342,0.3628625571727753,-0.8316431641578674,0.2758632302284241,-0.002179265022277832,-0.2094672918319702,0.06624150276184082,2,0.6252368812169737,0.3282263689443673,0.4174787248402269,0.5718897567501986,-0.1466275900602341,-0.9891881942749023,-0.002692586276680231,-17.44650268554688,-43.89556884765625,20.3837890625,2
1596231015.404403,96,0,103347.5960545,2.70680055697651,-1.607800924606002,1.419912662427814,0.05152122303843498,-0.03248759359121323,-0.06017650663852692,-0.08010509610176086,0.02837860584259033,0.2738317251205444,2,0.6307917826761287,0.3238552694783777,0.4126327180422434,0.5717988870261772,-0.1502104848623276,-0.9886386394500732,0.00556101743131876,-17.25044250488281,-43.7933349609375,20.9991455078125,2
1596231015.422772,97,0,103347.6261535,2.72046480968429,-1.6180188733618,1.419709299393644,0.09993984550237656,0.2246787399053574,0.1203155517578125,-0.01377454400062561,0.01179170608520508,-0.01214230060577393,2,0.630720041681062,0.3251841678803734,0.4133692545196271,0.570590538401345,-0.1503465324640274,-0.9886080622673035,0.007105028256773949,-17.24626159667969,-43.5,21.025390625,2
1596231015.464841,98,0,103347.6562525,2.73587079744523,-1.627991258597312,1.415288361783319,0.04275299236178398,-0.01486648246645927,0.1365078538656235,0.07858076691627502,-0.03299045562744141,-0.004866719245910645,2,0.631064063774871,0.3258604010605233,0.4158280378329364,0.5680320290873089,-0.1546299755573273,-0.9879329800605774,0.00885370746254921,-17.61700439453125,-43.64937591552734,21.10269165039062,2
1596231015.48306,99,0,103347.6863515,2.753088578264839,-1.652283071268737,1.40987531883636,0.2668308615684509,-0.3824222683906555,0.2374622523784637,0.1390467882156372,0.02629518508911133,0.006679654121398926,2,0.6342967984173176,0.3227826318295584,0.4145019754617932,0.5671572488373318,-0.1596975326538086,-0.9870801568031311,0.01304211188107729,-17.51701354980469,-43.39837646484375,21.37088012695312,2
1596231015.526146,100,0,103347.7164505,2.772387496468141,-1.681712727691032,1.40408660186578,-0.08760812878608704,-0.2447600364685059,0.08429134637117386,-0.1286847293376923,0.06934475898742676,0.03057718276977539,2,0.6383649314038891,0.3188636646828717,0.4121514432118255,0.5665222294441846,-0.1649193465709686,-0.9861360788345337,0.01836764439940453,-17.67441558837891,-43.27896881103516,21.5892333984375,2
1596231015.543101,101,0,103347.7465495,2.771750511124237,-1.685150793161684,1.403442044920577,-0.0346541628241539,0.1014112383127213,-0.005072619765996933,-0.2096368670463562,-0.0468374490737915,0.08785128593444824,2,0.6392962770579311,0.3174961777398474,0.4110429240212162,0.5670452317865642,-0.1654870361089706,-0.9860289096832275,0.01900710538029671,-17.77243041992188,-43.03144836425781,21.8192138671875,2
1596231015.586673,102,0,103347.7766485,2.752604819787688,-1.658514673744049,1.40280050653063,-0.0202484168112278,0.2484415769577026,0.08386960625648499,0.1302166283130646,0.03856402635574341,0.1675724983215332,2,0.6369655956421718,0.3187460488929691,0.4142864507042049,0.566606364218409,-0.1665653586387634,-0.9859218597412109,0.01464842725545168,-17.71833038330078,-43.34133911132812,21.49722290039062,2
1596231015.603354,103,0,103347.8067475,2.749502706894137,-1.653381112565699,1.399756746201001,-0.1767666786909103,-0.1651291698217392,0.09041550010442734,0.04285123944282532,0.00819694995880127,-0.01822757720947266,2,0.6369504092857043,0.3182993043560672,0.4158598687005649,0.5657210760364595,-0.1696269810199738,-0.9854083657264709,0.01404054183512926,-17.74983215332031,-43.04121398925781,21.61856079101562,2
1596231015.643631,104,0,103347.8368465,2.71531119436067,-1.625087539541339,1.395875471117895,-0.1474158614873886,-0.03289224207401276,0.2574471533298492,0.1332682073116302,-0.05368351936340332,-0.05581855773925781,2,0.6371590907028153,0.3142453650352312,0.4162412650690366,0.5674693726218178,-0.1737745702266693,-0.9847403168678284,0.009443712420761585,-18.10936737060547,-43.29911804199219,21.4039306640625,2
1596231015.66377,105,0,103347.8669455,2.681594675703058,-1.588235190966301,1.38535176691966,-0.1971318125724792,0.1217450276017189,0.3713337481021881,0.09445074200630188,0.0906904935836792,0.03525853157043457,2,0.636460245388949,0.3106863372715216,0.4213400740184738,0.5664494953087849,-0.1843561828136444,-0.9828543663024902,0.003215288277715445,-18.28026580810547,-43.27162170410156,21.14187622070312,2
1596231015.703486,106,0,103347.8970445,2.651263144597173,-1.559194006252995,1.377962493890937,-0.2641569077968597,-0.172441229224205,0.1816225349903107,-0.04322549700737,-0.06696808338165283,1.621246337890625e-05,2,0.6361525878993861,0.3069171907685434,0.4240769806589956,0.5668074616137387,-0.1916294246912003,-0.9814651012420654,-0.002223445801064372,-18.92033386230469,-43.08332824707031,20.99826049804688,2
1596231015.723927,107,0,103347.9271435,2.603698069239168,-1.513840417976688,1.368676570690008,-0.2632502913475037,0.1681376844644547,0.4075308442115784,0.09506702423095703,0.02412623167037964,-0.004477024078369141,2,0.6350532575601948,0.301651444717559,0.4276762287849281,0.568160963330455,-0.2004212141036987,-0.9796432256698608,-0.01142753195017576,-18.82790374755859,-43.04178619384766,20.83270263671875,2
1596231015.766663,108,0,103347.957243125,2.579689842079169,-1.483891120252006,1.357631917259511,-0.1668950915336609,0.2325550317764282,0.1882482618093491,-0.1806183457374573,0.04755926132202148,-0.05968695878982544,2,0.6336376747741778,0.2988682962188825,0.4336089690672174,0.5667137920889176,-0.21075639128685,-0.9773663878440857,-0.01836207695305347,-19.80812072753906,-43.03648376464844,20.2020263671875,2
1596231015.78398,109,0,103347.987342125,2.563236258453993,-1.459289531148339,1.356229642183322,-0.147002786397934,0.3677142262458801,0.0333278551697731,0.01025688648223877,-0.03822231292724609,-0.07416427135467529,2,0.6309158331172871,0.3001641698933916,0.4371415703084224,0.566351515163362,-0.2116022109985352,-0.9770687222480774,-0.02369336597621441,-20.22245025634766,-43.16696929931641,19.9200439453125,2
1596231015.825824,110,0,103348.017441125,2.535411898734507,-1.421699902952861,1.349093427154143,-0.2359663993120193,0.3003277480602264,0.3188350796699524,0.08747705817222595,0.1030951738357544,0.1338592767715454,2,0.627613226503845,0.2996160015998517,0.4432365424123926,0.5655735572455132,-0.2174524515867233,-0.9755244255065918,-0.03266377747058868,-20.35837554931641,-43.18288421630859,19.6553955078125,2
1596231015.844115,111,0,103348.047540125,2.506680780751326,-1.384998103049414,1.342246112939287,-0.3099006414413452,0.2556537985801697,0.01260118279606104,-0.2109165489673615,-0.03169399499893188,0.01034832000732422,2,0.6244136026035686,0.2986313754398343,0.4486812732624181,0.5653426477250069,-0.2226672768592834,-0.9739958643913269,-0.04185390844941139,-21.30397796630859,-43.30010986328125,18.95806884765625,2
1596231015.885086,112,0,103348.077639125,2.461732009166004,-1.331683659869997,1.340245928986739,-0.3296365737915039,0.4111287295818329,0.068475142121315,-0.003404319286346436,-0.02942430973052979,-0.04984617233276367,2,0.6192817434258261,0.2990474226997027,0.4531485042714569,0.5672014329946358,-0.2220129370689392,-0.9735407829284668,-0.05412152409553528,-20.98206329345703,-43.53191375732422,18.486083984375,2
1596231015.904041,113,0,103348.107738125,2.429180748045978,-1.279806077241706,1.33630944235146,-0.2782019376754761,0.6919440031051636,-0.0308573991060257,0.1140958666801453,0.1622833013534546,0.1100363731384277,2,0.6125963611694993,0.3023172492928599,0.4611329678189001,0.5662919598126192,-0.2225770950317383,-0.9726336598396301,-0.06665995717048645,-21.59757995605469,-43.60121154785156,17.50064086914062,2
1596231015.94426,114,0,103348.137837125,2.402721735545109,-1.248532677217961,1.332891551061559,-0.1624634265899658,-0.02537702396512032,0.1376056969165802,0.01478677988052368,-0.1043664216995239,-0.1023632884025574,2,0.6095574152872613,0.3018610475672786,0.464269335285286,0.5672510985685975,-0.2235356122255325,-0.9718338847160339,-0.07463932782411575,-21.77436065673828,-43.49158477783203,17.3629150390625,2
1596231015.96456,115,0,103348.167936125,2.387963029394982,-1.234379126458659,1.32510046585341,-0.1898256540298462,-0.1019726246595383,0.3105462193489075,0.1855592727661133,0.04988539218902588,-0.05897319316864014,2,0.6088697430543004,0.2985486746477743,0.4668632595631902,0.5676135969547558,-0.2295972555875778,-0.969968318939209,-0.08029264956712723,-22.09005737304688,-43.62317657470703,17.03836059570312,2
1596231016.004709,116,0,103348.198035125,2.384425113307179,-1.241146784730548,1.313216872950017,-0.183486595749855,-0.4373979270458221,0.3139566481113434,-0.0296463668346405,0.01420104503631592,0.08727008104324341,2,0.611525254602681,0.2912138168819608,0.4675553972587203,0.5679996311693898,-0.2410251796245575,-0.967009425163269,-0.08246275037527084,-22.26992797851562,-43.51587677001953,16.98220825195312,2
1596231016.024897,117,0,103348.228134125,2.367905696357929,-1.235208805793409,1.306696898261846,-0.1817003488540649,-0.2875069975852966,0.06782390177249908,-0.1936115622520447,-0.02211010456085205,-0.06339824199676514,2,0.6128025903725345,0.2854636561569713,0.466732678465873,0.5702142539850024,-0.2464790940284729,-0.9653279781341553,-0.08596697449684143,-22.34364318847656,-43.51524353027344,16.88790893554688,2
1596231016.066754,118,0,103348.258233125,2.357074855307761,-1.228934022769534,1.302780609836776,-0.07241369783878326,0.01758027821779251,0.02043134160339832,0.07119470834732056,0.04287070035934448,-0.06436252593994141,2,0.6130291200772777,0.2824996499708106,0.4668033573728469,0.5713877826110806,-0.2494944036006927,-0.9642982482910156,-0.08877848833799362,-22.53309631347656,-43.46277618408203,16.9833984375,2
1596231016.084638,119,0,103348.288332125,2.348028046900574,-1.219483266220736,1.3041392414464,-0.01897978037595749,-0.06235060095787048,-0.0209552887827158,-0.07071542739868164,0.05853873491287231,-0.01763296127319336,2,0.6120537413133809,0.2829300808053802,0.4666806672337611,0.572319981857632,-0.2474142163991928,-0.964657187461853,-0.09068157523870468,-22.34159088134766,-43.54924011230469,16.85403442382812,2
1596231016.121689,120,0,103348.318431125,2.346493896010196,-1.215137089716921,1.304120194800825,0.03751881420612335,0.3433952629566193,-0.1340733170509338,-0.1888369023799896,0.01535165309906006,0.03862279653549194,2,0.6112565991884138,0.2836974126458139,0.4675768073244347,0.5720604824023618,-0.2470346540212631,-0.9646521806716919,-0.09176229685544968,-22.41893005371094,-43.59552001953125,16.56365966796875,2
1596231016.144748,121,0,103348.348530125,2.337808594775246,-1.188360906103866,1.307399629453696,-0.06564364582300186,0.7114472985267639,-0.07829806208610535,0.1096521317958832,-0.009701848030090332,-0.005600988864898682,2,0.6061104396677406,0.2899122595062498,0.4722011918393073,0.5706198952356374,-0.2415527403354645,-0.9655112028121948,-0.09716203063726425,-22.36564636230469,-43.66980743408203,16.34771728515625,2
1596231016.181415,122,0,103348.378629125,2.337479775639657,-1.17176742534916,1.306299424272696,-0.0223890095949173,0.3548886477947235,0.1527855694293976,0.09312257170677185,-0.01026773452758789,0.01835310459136963,2,0.6022480707437963,0.2941301036702402,0.4774713323041667,0.5681601925652902,-0.2408863455057144,-0.9652241468429565,-0.1015694886445999,-22.77060699462891,-43.8603515625,16.15963745117188,2
1596231016.205093,123,0,103348.408728125,2.33349685841099,-1.160023686463682,1.300656735332544,-0.1419485360383987,0.1711104959249496,0.1020853072404861,0.06909224390983582,-0.02679347991943359,0.02680444717407227,2,0.6001499821168987,0.2941730408136515,0.4816698225289154,0.5668125644376605,-0.2446663230657578,-0.9637336730957031,-0.1065644398331642,-23.11537933349609,-43.50408935546875,15.76165771484375,2
1596231016.244765,124,0,103348.438827125,2.324585355704426,-1.14862431855184,1.297549442536517,-0.115909107029438,0.0216507576406002,0.06937615573406219,0.02924624085426331,0.04374128580093384,-0.03005945682525635,2,0.5987699392033482,0.293578010777702,0.4835508364491001,0.566979019673846,-0.2461662590503693,-0.9628997445106506,-0.110573023557663,-23.16680145263672,-43.59356689453125,15.71966552734375,2
1596231016.265249,125,0,103348.468926125,2.318883779716654,-1.143389985609626,1.294309876018239,-0.03999235481023788,0.00142744742333889,0.04864845424890518,-0.02051475644111633,0.05830681324005127,-0.01410782337188721,2,0.5983916313638813,0.2921492120471355,0.4845333127606728,0.5672776879838585,-0.2484218925237656,-0.9620205163955688,-0.1131525859236717,-23.49281311035156,-43.67774963378906,15.48410034179688,2
1596231016.304688,126,0,103348.499025125,2.315212929131063,-1.14017349655677,1.294636993375991,-0.01864507421851158,-0.05619282647967339,-0.08465198427438736,-4.142522811889648e-05,0.0001393556594848633,0.0009878873825073242,2,0.598143852145587,0.2920857424368949,0.4843496119878961,0.5677284009649815,-0.2477707415819168,-0.9621097445487976,-0.1138197034597397,-23.46745300292969,-43.53914642333984,15.314453125,2
1596231016.325625,127,0,103348.529124125,2.315695842731011,-1.144704783886642,1.296844370044946,0.09085696935653687,-0.1534051448106766,-0.02047592028975487,0.00283581018447876,0.03317165374755859,-0.05012869834899902,2,0.599135910871317,0.2917657851818344,0.4824262891764463,0.5684839445282799,-0.24634949862957,-0.9627092480659485,-0.1118177771568298,-23.41930389404297,-43.66069793701172,15.41342163085938,2
1596231016.364603,128,0,103348.559223125,2.323595748403595,-1.157658136456389,1.29749476791928,0.06952627748250961,-0.2107962369918823,0.0126388818025589,0.009774446487426758,-0.008657097816467285,0.01614952087402344,2,0.6010929394841323,0.2906963466165572,0.480577453599071,0.5685317118083172,-0.2472032457590103,-0.9628850221633911,-0.1083658263087273,-23.42470550537109,-43.89476013183594,15.67538452148438,2
1596231016.385657,129,0,103348.589322125,2.321162463464505,-1.160446845865423,1.29689973983914,-0.1548908799886703,-0.03660672903060913,0.01078808307647705,0.004676967859268188,-0.005692064762115479,0.07435202598571777,2,0.6021259795156477,0.288949794722609,0.4792360632150728,0.5694604943686655,-0.2480299770832062,-0.9627242684364319,-0.1079046428203583,-23.24508666992188,-43.44641876220703,15.82073974609375,2
