loggingTime,loggingSample,identifierForVendor,motionTimestamp_sinceReboot,motionYaw,motionRoll,motionPitch,motionRotationRateX,motionRotationRateY,motionRotationRateZ,motionUserAccelerationX,motionUserAccelerationY,motionUserAccelerationZ,motionAttitudeReferenceFrame,motionQuaternionX,motionQuaternionY,motionQuaternionZ,motionQuaternionW,motionGravityX,motionGravityY,motionGravityZ,motionMagneticFieldX,motionMagneticFieldY,motionMagneticFieldZ,motionMagneticFieldCalibrationAccuracy
1596231021.360667,1,0,103353.5556442917,1.85714246176425,-0.7325851155720716,1.277375586163959,0.07833050936460495,0.2846459448337555,0.03993614017963409,-0.02606019377708435,-0.01210051774978638,-0.02081215381622314,2,0.5636535430054115,0.2734616745197198,0.4723779822885217,0.6199779662426244,-0.1934346258640289,-0.9572601318359375,-0.2150267958641052,-20.13861083984375,-46.05624389648438,11.0179443359375,2
1596231021.382196,2,0,103353.5857432917,1.863439053328036,-0.7348656248046086,1.277913355984553,0.01581140235066414,-0.06314830482006073,0.04547921568155289,-0.05823194980621338,0.03656470775604248,-0.05581194162368774,2,0.5634042776093966,0.2747257163712237,0.4735189869479502,0.6187739820299194,-0.1935789883136749,-0.9574155211448669,-0.214202806353569,-20.29865264892578,-45.91631317138672,11.0802001953125,2
1596231021.412083,3,0,103353.6158422917,1.866442973213313,-0.737664448879787,1.27818879724335,-0.008536974899470806,0.1028469055891037,-0.04377874359488487,-0.009693503379821777,0.05510860681533813,0.00862574577331543,2,0.5636919527036659,0.2748067114906914,0.4735743542122847,0.6184336716467811,-0.1940006613731384,-0.9574949741363525,-0.2134653031826019,-20.37232971191406,-45.90642547607422,11.24832153320312,2
1596231021.442267,4,0,103353.6459412917,1.86294071874294,-0.7352528664516609,1.282296293094485,0.2525861263275146,-0.1541116833686829,-0.1215117871761322,0.01713690161705017,-0.03770804405212402,-0.05127847194671631,2,0.5641655245193284,0.2760624247987095,0.4718986359632105,0.6187233376813317,-0.1908453553915024,-0.9586716890335083,-0.211013600230217,-20.08604431152344,-46.14326477050781,11.24365234375,2
1596231021.472291,5,0,103353.6760402917,1.871955120714307,-0.7479567509441627,1.290946367961964,0.05365309119224548,-0.1724624186754227,-0.110630139708519,0.00721701979637146,-0.002855181694030762,0.02735638618469238,2,0.5670664746470455,0.2778358095196529,0.4684033317351667,0.6179332457842461,-0.187863677740097,-0.9610968828201294,-0.2024857550859451,-20.13160705566406,-46.16963958740234,11.55001831054688,2
1596231021.502418,6,0,103353.7061392917,1.86913133625381,-0.7522756712039872,1.295343491933206,0.2396382540464401,0.0502810925245285,-0.1859106570482254,-0.08126905560493469,0.01228302717208862,0.008783042430877686,2,0.56904492774423,0.2773005421605674,0.4649298472846268,0.6189770800619001,-0.1858465820550919,-0.9623021483421326,-0.1985845565795898,-19.67713928222656,-46.05061340332031,11.95266723632812,2
1596231021.532491,7,0,103353.7362372917,1.857929731321394,-0.737875339126119,1.304432540749707,0.1249258518218994,0.2034895867109299,-0.2407635152339935,0.02794274687767029,-0.01395308971405029,-0.02381056547164917,2,0.568477575927047,0.2818739916586973,0.4627165246464437,0.6190911809744839,-0.1770765334367752,-0.9647344350814819,-0.1947605907917023,-19.57257080078125,-46.07799530029297,11.95623779296875,2
1596231021.562564,8,0,103353.7663362917,1.862028142556303,-0.7380266731053748,1.309570968488292,0.1393203884363174,0.006579936947673559,0.0110738929361105,0.08563938736915588,0.002557218074798584,-0.009064555168151855,2,0.5686177198118127,0.2848540468849359,0.4623333237396207,0.6178836640753658,-0.1737685203552246,-0.9660742282867432,-0.1910641193389893,-19.30538940429688,-46.17391967773438,12.07958984375,2
1596231021.59267,9,0,103353.7964352917,1.872886116448765,-0.7480000195680339,1.312498125839373,0.1225313618779182,0.01297629997134209,-0.009131327271461487,0.06226527690887451,0.0005573034286499023,0.02605235576629639,2,0.5697556301579851,0.2859280676670087,0.4619270902866471,0.6166417672066911,-0.1737407445907593,-0.9668260812759399,-0.1872473210096359,-19.22640228271484,-45.90603637695312,12.19430541992188,2
1596231021.622773,10,0,103353.8265342917,1.883545722994355,-0.7578307699652153,1.314889727974514,0.1672503650188446,0.06711037456989288,0.008964851498603821,-0.0068245530128479,0.03738206624984741,-0.005664944648742676,2,0.5708025819292628,0.2868083919253767,0.4616539884612088,0.6154682536391372,-0.1739836633205414,-0.9674342274665833,-0.1838507205247879,-19.13430023193359,-46.05904388427734,12.43939208984375,2
1596231021.652846,11,0,103353.8566332917,1.905257878284201,-0.776519090421674,1.321616144070263,0.4674359560012817,0.1046638637781143,-0.02405131235718727,-0.04617735743522644,-0.004386007785797119,-0.08343714475631714,2,0.5727972130424077,0.2897289950845605,0.4608465206391351,0.6128466650260861,-0.1728243082761765,-0.9691148996353149,-0.1759209185838699,-19.39385223388672,-45.92723083496094,12.53506469726562,2
1596231021.682941,12,0,103353.8867312917,1.935684260845161,-0.8023964038852203,1.330446886179455,0.2824751138687134,0.1336535811424255,-0.06246111541986465,-0.0008692145347595215,0.02538633346557617,-0.0003316402435302734,2,0.5753008251548386,0.2937869562621894,0.4598925534850268,0.6092760126117642,-0.1711584478616714,-0.971254825592041,-0.1654363721609116,-19.29047393798828,-45.4991455078125,13.208984375,2
1596231021.71306,13,0,103353.9168302917,1.97156355335566,-0.8359314048116218,1.340436011639307,0.5827091336250305,-0.1183745935559273,-0.05206649377942085,-0.04046139121055603,-0.0007551908493041992,-0.08139002323150635,2,0.5786836578085726,0.2976231953508923,0.4578903392487708,0.6057079777627332,-0.1694018244743347,-0.9735841751098633,-0.1530913114547729,-19.07357788085938,-45.53075408935547,13.37896728515625,2
1596231021.745899,14,0,103353.9469292917,2.002569152850886,-0.8734113732495805,1.351270535948254,0.2545728087425232,-0.3951947689056396,-0.1403561234474182,0.02561509609222412,0.02537643909454346,0.1228256225585938,2,0.5835219899644526,0.2992911494425387,0.4528443793686607,0.604035673520765,-0.1669242382049561,-0.9760008454322815,-0.1398537904024124,-18.76062774658203,-45.51118469238281,14.37142944335938,2
1596231021.773308,15,0,103353.97702825,2.016342647151335,-0.8966318473403823,1.358576949720084,0.202305793762207,-0.3217341005802155,-0.115033395588398,-0.08312937617301941,-0.03187465667724609,-0.005989432334899902,2,0.587242235090901,0.2990048437980581,0.4478084761111956,0.6043264652607417,-0.1645510196685791,-0.9775658845901489,-0.13148532807827,-18.54712677001953,-45.41864776611328,14.92074584960938,2
1596231021.805339,16,0,103354.00712725,2.02169261517157,-0.91206399733962,1.365690925958743,0.2115418165922165,-0.2642404139041901,-0.2647755146026611,-0.2909412980079651,0.04389941692352295,-0.09656298160552979,2,0.5903727356980407,0.2985380726405058,0.4425349602380478,0.6053908077886797,-0.1610567420721054,-0.9790395498275757,-0.1246701031923294,-18.34598541259766,-45.13198852539062,15.44244384765625,2
1596231021.833487,17,0,103354.03722625,2.024375650111073,-0.911263874890184,1.378269623543291,0.2819741070270538,0.4814441204071045,-0.3279405236244202,-0.1613192558288574,0.0597999095916748,-0.03498512506484985,2,0.5906239383407839,0.3042066578373784,0.4394140728491613,0.6045966741227462,-0.1512122750282288,-0.9815239310264587,-0.1172433421015739,-17.91344451904297,-45.28035736083984,15.73101806640625,2
1596231021.866096,18,0,103354.06732425,2.032033047671933,-0.8963366066537607,1.392597020101198,0.4539536535739899,0.831077516078949,-0.3517647385597229,0.04323816299438477,-0.003944635391235352,-0.09193313121795654,2,0.5870735409663468,0.3162240647265668,0.441350032593857,0.6004643568209926,-0.1384472995996475,-0.9841644763946533,-0.1106939986348152,-17.75337219238281,-45.60089111328125,15.70565795898438,2
1596231021.8937,19,0,103354.09742325,2.062558430974267,-0.9102641837392544,1.407225054426366,0.3678766191005707,0.3458041250705719,-0.1574313640594482,0.4607223868370056,0.003063440322875977,0.03229737281799316,2,0.5861061140861517,0.326380206865556,0.4415038604837032,0.5958441320790751,-0.1285927593708038,-0.9866520166397095,-0.099911168217659,-17.61879730224609,-45.50712585449219,16.05880737304688,2
1596231021.926206,20,0,103354.12752225,2.126255776974405,-0.9675513138959658,1.413858716468123,0.4717258512973785,-0.2008671313524246,0.1590593457221985,0.1433970928192139,0.1158156394958496,-0.08308827877044678,2,0.5885742480716897,0.3305232022168566,0.4413508184445341,0.5912229242770233,-0.1287096589803696,-0.9877105355262756,-0.08866953104734421,-17.84640502929688,-45.39791107177734,16.20120239257812,2
1596231021.953924,21,0,103354.15762125,2.216013514179506,-1.064306077797434,1.420196907238468,0.4528556168079376,-0.0865650475025177,-0.04091376438736916,0.04984766244888306,-0.05428135395050049,-0.1150802373886108,2,0.5950762825301616,0.3308977359853301,0.4370314916753847,0.5877026882120115,-0.1311951726675034,-0.9886813163757324,-0.07278181612491608,-17.65106201171875,-44.56581115722656,17.20730590820312,2
1596231021.985701,22,0,103354.18772025,2.322234074758461,-1.163043586241044,1.426156699420108,0.6549680829048157,0.4175052046775818,0.1310887485742569,-0.001564085483551025,0.07566630840301514,-0.1024484634399414,2,0.5988155876603634,0.3359188387042737,0.4366006360865217,0.5813418770138333,-0.1323191523551941,-0.9895579218864441,-0.05715685337781906,-17.66081237792969,-44.78221893310547,17.46966552734375,2
1596231022.014351,23,0,103354.21781825,2.434563354851885,-1.265835089729628,1.430634433945329,0.4082048833370209,0.0334702655673027,-0.03803203999996185,-0.005234748125076294,0.04559469223022461,0.1667541265487671,2,0.6019790790231951,0.3415370108299698,0.4367262517611157,0.5746686713528142,-0.1332588940858841,-0.9901933670043945,-0.04194731637835503,-18.23091125488281,-44.31997680664062,18.421142578125,2
1596231022.046756,24,0,103354.24791725,2.521206741616511,-1.349963487627988,1.432519595372615,0.377765953540802,0.1842457950115204,0.1738532185554504,0.07743507623672485,-0.0921250581741333,0.1005456447601318,2,0.6052999101412808,0.3442612757040093,0.4355323256301017,0.5704454572232253,-0.1344907879829407,-0.9904549717903137,-0.03019238635897636,-18.04850769042969,-44.06101989746094,18.77310180664062,2
1596231022.074355,25,0,103354.27801625,2.595886353236885,-1.421395513660838,1.429684264285245,0.3046818971633911,0.005276585463434458,0.05292253941297531,-0.09638041257858276,0.06984364986419678,-0.01153206825256348,2,0.6083162156862718,0.3456648011785821,0.4359593390243571,0.5660449195968169,-0.1390786617994308,-0.9900602102279663,-0.0209344532340765,-18.36140441894531,-43.84763336181641,19.22659301757812,2
1596231022.10587,26,0,103354.30811525,2.660034241006196,-1.480941419911271,1.428998719564013,0.3082753419876099,0.3119164705276489,0.1806564033031464,0.1444073915481567,-0.04654157161712646,0.02946317195892334,2,0.6102669994852461,0.3481859052594571,0.4361191523191252,0.5622641152354357,-0.140753373503685,-0.9899635314941406,-0.01268152985721827,-18.45952606201172,-43.89054107666016,19.39749145507812,2
1596231022.134551,27,0,103354.33821425,2.726819823492206,-1.53367086213352,1.41860216147557,0.2869410514831543,0.432523638010025,0.4788275957107544,0.1993727087974548,0.005762934684753418,0.2013883590698242,2,0.6118015731910145,0.3505499080831751,0.4416728069990548,0.5547420209698586,-0.151502713561058,-0.9884408116340637,-0.005627193953841925,-19.18875122070312,-43.49355316162109,19.85702514648438,2
1596231022.165636,28,0,103354.36831225,2.772991992335757,-1.577435912769886,1.405197565852924,0.2090729176998138,-0.160475105047226,0.3991909027099609,0.1518290042877197,0.04540622234344482,0.03974318504333496,2,0.6157176147387851,0.3484810795312037,0.4447221655736996,0.5492496022181128,-0.16484035551548,-0.9863198399543762,0.00109448772855103,-19.43534851074219,-43.23007965087891,19.8436279296875,2
1596231022.194665,29,0,103354.39841125,2.795654651007469,-1.603864212079851,1.391486518649066,0.06319835782051086,-0.2135738730430603,0.5229146480560303,-0.02518457174301147,-0.02564340829849243,-0.005042552947998047,2,0.6201300739116073,0.3440741355207657,0.4464657407101561,0.5456374590734611,-0.1782541871070862,-0.9839670062065125,0.005896638613194227,-20.13210296630859,-42.60398101806641,20.14239501953125,2
1596231022.226362,30,0,103354.42851025,2.797966940823277,-1.61493924158148,1.375386146763636,-0.008821811527013779,-0.3564688563346863,0.5687718391418457,0.1432406604290009,-0.06838667392730713,0.1100918054580688,2,0.6251208854027628,0.3369096374302374,0.447921156438109,0.5432150923861606,-0.193980947136879,-0.9809681177139282,0.008568449877202511,-20.51300048828125,-42.48283386230469,20.49795532226562,2
1596231022.255192,31,0,103354.45860925,2.761407896381204,-1.59754948820835,1.355228343272201,-0.3528107404708862,-0.9935573935508728,0.7317737340927124,0.1912841796875,-0.01106315851211548,0.07374691963195801,2,0.630786078551502,0.3239905446310233,0.4488025729444946,0.5437972571428817,-0.2138264924287796,-0.9768550395965576,0.005721899680793285,-21.10867309570312,-41.94821929931641,20.69677734375,2
1596231022.285852,32,0,103354.48870725,2.721214849792505,-1.596932429836071,1.33563414720324,-0.3238871097564697,-1.450242519378662,0.7410632371902466,0.2820539772510529,0.0691382884979248,0.1854962110519409,2,0.6401950466907833,0.3052782718017226,0.4432918166663812,0.5481312690555069,-0.2329213172197342,-0.9724765419960022,0.006089041940867901,-21.22653198242188,-41.95038604736328,20.89447021484375,2
1596231022.315116,33,0,103354.51880625,2.667461803920503,-1.59122143378614,1.306364603373248,-0.5240066647529602,-1.172550678253174,1.145037770271301,0.2419385612010956,-0.4278974533081055,0.3409972190856934,2,0.6512761978302303,0.2801933197920898,0.4382975080683689,0.5524730649272465,-0.2613069415092468,-0.9652411937713623,0.005337964743375778,-21.31082153320312,-41.71206665039062,21.38229370117188,2
1596231022.345829,34,0,103354.54890525,2.60567210575737,-1.563625732339187,1.264106399179538,-0.5891720652580261,-1.355896472930908,1.796027421951294,0.6748900413513184,-0.3884052634239197,-0.2791584730148315,2,0.6591738405794666,0.2537862037118771,0.4419036164120256,0.5529952720690858,-0.3018974661827087,-0.9533381462097168,-0.002164821373298764,-22.46358489990234,-41.25457000732422,21.17376708984375,2
1596231022.376101,35,0,103354.57900425,2.53806569686167,-1.557349001467287,1.192595145845331,-0.8352026343345642,-2.268861770629883,2.854128360748291,1.147894144058228,-1.133966565132141,-0.4112682342529297,2,0.6736791819565128,0.2089825903328598,0.4451576525841642,0.5516497858184457,-0.3692164719104767,-0.9293303489685059,-0.004965273663401604,-23.54435729980469,-40.70878601074219,21.50198364257812,2
1596231022.406011,36,0,103354.60910325,2.469667997759773,-1.545394342998192,1.0961751989264,-1.155061364173889,-1.440312743186951,3.517355442047119,1.27467679977417,-1.168370246887207,0.130988597869873,2,0.6855077328310016,0.1558056256813328,0.457066577984077,0.5448799528330519,-0.4568546116352081,-0.8894659280776978,-0.0116075100377202,-26.40892791748047,-39.09614562988281,21.72299194335938,2
1596231022.435482,37,0,103354.63920125,2.385123964045914,-1.544479037162081,0.9899981566809973,-1.817801117897034,-3.673395395278931,3.325514316558838,1.030508756637573,-0.5686649084091187,0.3433007001876831,2,0.6962544823788244,0.08950133678982514,0.4634131050415982,0.5408028253128155,-0.54850172996521,-0.8360249400138855,-0.01443841308355331,-28.28191375732422,-37.98866271972656,21.62118530273438,2
1596231022.465759,38,0,103354.66930025,2.286286664259223,-1.622569713210653,0.8938262616005375,-2.270968437194824,-6.456664562225342,3.137548923492432,0.6596471667289734,0.5586495399475098,0.7101641893386841,2,0.7184767838205882,-0.0004294763235227483,0.435037663916152,0.5427092724266739,-0.6255950927734375,-0.7794743776321411,0.0324181467294693,-29.06708526611328,-36.12965393066406,23.5238037109375,2
1596231022.495739,39,0,103354.69939925,2.140669456589802,-1.72750076912629,0.8015007557554088,-3.397867918014526,-7.224666118621826,3.644759178161621,-0.039878249168396,1.078122496604919,1.177827954292297,2,0.7357874476707007,-0.1135700369187629,0.382454807524249,0.5472176000296587,-0.6871059536933899,-0.7184008955955505,0.1085626408457756,-27.93748474121094,-35.47773742675781,25.06884765625,2
1596231022.526015,40,0,103354.72949825,1.975412915766701,-1.777157866372791,0.7362308715504241,-3.337883949279785,-3.239892482757568,1.718949437141418,-0.2619612216949463,0.61483234167099,0.4841494560241699,2,0.7294491596979019,-0.2093319966993098,0.3372807259437803,0.5570690092705028,-0.7252830266952515,-0.6714997291564941,0.1518319249153137,-25.88959503173828,-35.89231872558594,26.73703002929688,2
1596231022.555876,41,0,103354.75959725,1.843126861353062,-1.771127669806755,0.7303137762684442,-3.251505851745605,-2.486243486404419,0.4664133787155151,-0.08558732271194458,0.2260217666625977,0.45072340965271,2,0.7127087744129531,-0.2572315073387911,0.3037028411071994,0.5776183267106517,-0.7300665974617004,-0.6671034097671509,0.1482436954975128,-25.38225555419922,-36.79685974121094,25.76861572265625,2
1596231022.602756,42,0,103354.78969525,1.687402472673306,-1.723866284563449,0.7293234370526639,-4.314427852630615,-1.148453593254089,0.9342980980873108,0.1853861808776855,0.08213073015213013,0.7192776203155518,2,0.6841556677855553,-0.2979511290331843,0.2744172699061579,0.606507579263565,-0.7369074821472168,-0.6663653254508972,0.1136877089738846,-24.19928741455078,-39.51706695556641,22.75570678710938,2
1596231022.616157,43,0,103354.81979425,1.505862260798789,-1.636544056193844,0.7232991782648506,-4.342906475067139,-1.470756649971008,0.2300961762666702,0.154494047164917,0.2790262699127197,0.3020614385604858,2,0.6433087946439191,-0.3328350392504984,0.2486619148560737,0.6430723653287348,-0.7480068206787109,-0.6618614196777344,0.04925073683261871,-24.25881195068359,-40.86827087402344,19.93466186523438,2
1596231022.662996,44,0,103354.84989325,1.353263042326995,-1.606969297519074,0.7370787850239618,-3.259083032608032,-3.569593191146851,-0.612173855304718,0.1985881924629211,0.1377468705177307,-0.001128673553466797,2,0.6154325361726095,-0.3669219903962091,0.2033267946026734,0.6672851274074685,-0.7399510145187378,-0.6721277832984924,0.02677790634334087,-23.58081817626953,-43.44641876220703,14.67901611328125,2
1596231022.676305,45,0,103354.87999225,1.222951557727759,-1.661963515715309,0.7537102972843713,-3.242923974990845,-5.556415557861328,0.04904323816299438,0.2793609499931335,-0.2791537642478943,0.2508176565170288,2,0.5973884140674733,-0.4199030480034172,0.1373049875580178,0.669295212237196,-0.726127028465271,-0.6843488216400146,0.06638297438621521,-22.20281982421875,-44.57091522216797,13.3966064453125,2
1596231022.723021,46,0,103354.91009025,1.085363439344992,-1.726196374846025,0.7534900822223642,-3.289544105529785,-4.622379779815674,0.7168841958045959,-0.05031585693359375,-0.01517152786254883,0.4457141160964966,2,0.569698987716037,-0.4815416279441335,0.07279583897131403,0.6620133856853165,-0.7205174565315247,-0.6841882467269897,0.1128785535693169,-19.62535095214844,-45.81612396240234,11.37161254882812,2
1596231022.736445,47,0,103354.94018925,0.9563937016712204,-1.753831795120975,0.7496789980899129,-2.715021371841431,-2.989506006240845,0.4016172587871552,-0.7366333603858948,0.3397938013076782,0.5506268739700317,2,0.5370882620600601,-0.5273948868227667,0.0239704753352416,0.6578878310675985,-0.7196818590164185,-0.6814038753509521,0.1332183331251144,-19.31689453125,-46.66258239746094,8.557037353515625,2
1596231022.784869,48,0,103354.9702889167,0.8608224932572959,-1.759123541880368,0.7588899340886929,-2.064689159393311,-1.832117557525635,0.02548113092780113,-0.2805048823356628,0.2214619517326355,0.3538118600845337,2,0.513196721615895,-0.5518614994307052,-0.01228446104471698,0.6572116836219544,-0.712770938873291,-0.6881164312362671,0.1358439773321152,-19.43854522705078,-47.48229217529297,7.245147705078125,2
1596231022.796746,49,0,103355.0003879167,0.777201087044327,-1.756995133025078,0.7621388144419562,-1.863081574440002,-2.141900062561035,0.5466951131820679,0.1559715270996094,0.2085591554641724,0.3761559724807739,2,0.4904383921656476,-0.5713372251053289,-0.0404433775643937,0.6568169967731592,-0.7108580470085144,-0.6904701590538025,0.1339120864868164,-19.3377685546875,-47.38258361816406,4.6871337890625,2
1596231022.847173,50,0,103355.0304869167,0.7088191801035755,-1.782020432087962,0.7544385180162139,-1.230970144271851,-2.036592960357666,0.3849116861820221,-0.06464636325836182,0.3826097249984741,0.4996170997619629,2,0.468073445974688,-0.5977383874924371,-0.06583663206245671,0.64751962533278,-0.7124618887901306,-0.6848796606063843,0.1527678668498993,-19.71559143066406,-47.35394287109375,3.977996826171875,2
1596231022.856906,51,0,103355.0605849167,0.6473514462668291,-1.785052553687688,0.7632990936242715,-1.788830995559692,-1.312991857528687,-0.3688065111637115,-0.4076154232025146,0.3459300994873047,0.05805301666259766,2,0.4513955877230038,-0.6107844090018555,-0.08974988166133452,0.6443055188000351,-0.7060381174087524,-0.6913089752197266,0.1536311358213425,-19.91070556640625,-47.31376647949219,2.57440185546875,2
1596231022.907013,52,0,103355.0906839167,0.5947778662616946,-1.7832510881561,0.7958196246223783,-1.223300337791443,-1.002837419509888,-1.175261378288269,-0.02596843242645264,0.4013607501983643,0.1197255849838257,2,0.4429060469311075,-0.6144945910347923,-0.1185880817834586,0.6420028243378829,-0.6839677691459656,-0.7144373059272766,0.1475387364625931,-19.4808349609375,-47.51512145996094,1.63604736328125,2
1596231022.917073,53,0,103355.1207829167,0.5418041432241925,-1.78122162897102,0.8469199369556406,-1.307424902915955,-1.814184904098511,-1.470564603805542,0.1046671867370605,0.5565826296806335,0.03600621223449707,2,0.4386872522847158,-0.613776947337771,-0.1543807068531752,0.6379640782414623,-0.6476855874061584,-0.7492440342903137,0.1383372992277145,-17.12982940673828,-47.79267120361328,-0.503509521484375,2
1596231022.961566,54,0,103355.1508819167,0.5455277338196142,-1.878455799447512,0.8668281414619537,0.0528709888458252,-4.40707540512085,0.6140978336334229,-0.5409069061279297,-0.1626538038253784,0.5538349151611328,2,0.4361136915350929,-0.6385981007602436,-0.182081852921137,0.6073250581179782,-0.6168564558029175,-0.7622798085212708,0.1960053741931915,-15.99509429931641,-48.43509674072266,-0.675537109375,2
1596231022.977318,55,0,103355.1809809167,0.4608024856506877,-1.921535115341531,0.8454709888222693,-1.058851718902588,-1.771610975265503,1.20907735824585,-0.2418703436851501,0.1511287689208984,0.2794326543807983,2,0.3995221057910381,-0.6740533340871384,-0.2080603966138324,0.5854444902776824,-0.6229921579360962,-0.7482836246490479,0.2279316186904907,-17.44515228271484,-48.19191741943359,-0.092376708984375,2
1596231023.024999,56,0,103355.2110789167,0.4594080711494966,-1.952264720571079,0.8425431180877995,-0.05012429878115654,-1.130001306533813,-1.045282125473022,-0.1217367649078369,0.2969526648521423,-0.1425142288208008,2,0.3951865380832811,-0.6838988018030741,-0.2134213120344002,0.5749449234806464,-0.6177258491516113,-0.7463381290435791,0.2477799355983734,-18.22678375244141,-48.06999969482422,-0.103271484375,2
1596231023.037488,57,0,103355.2411779167,0.4795064209049291,-1.999384171020232,0.880678057549539,0.2750601768493652,-0.4267571568489075,-1.033607482910156,0.5348060131072998,-0.6232448816299438,-0.1114304065704346,2,0.4045428065397191,-0.6845673091086428,-0.2322271393769553,0.5601638487867837,-0.5790480971336365,-0.7711707353591919,0.2645745575428009,-16.35999298095703,-48.54916381835938,0.555633544921875,2
1596231023.068741,58,0,103355.2712769167,0.4760669978169262,-2.003203982840383,0.8842103744117337,-0.4521805346012115,-0.1991282403469086,0.5840376615524292,0.05256712436676025,-0.5205819606781006,-0.23667311668396,2,0.4036055143278882,-0.6855094091151785,-0.2353633146114473,0.5583758581851966,-0.5755559206008911,-0.773414671421051,0.2656411230564117,-15.61666107177734,-48.65081787109375,0.764129638671875,2
1596231023.097665,59,0,103355.3013759167,0.4639111572278807,-2.001643068873602,0.8792928175571703,-0.009322669357061386,0.03997337818145752,-0.3236479461193085,-0.287938117980957,0.01117545366287231,-0.3052246570587158,2,0.3986531085977179,-0.6886505266567784,-0.2364887009381164,0.5575925003732597,-0.5794188380241394,-0.7702881097793579,0.2663277089595795,-16.17942047119141,-48.54497528076172,0.347930908203125,2
1596231023.143309,60,0,103355.3314749167,0.467284234546118,-1.986422496131619,0.8977777002113001,-0.3023015558719635,0.6385124921798706,-0.5162253975868225,0.02413135766983032,-0.188815176486969,0.1090189218521118,2,0.405257175526913,-0.6794183525866102,-0.2398021629080386,0.5627187122057172,-0.5702797174453735,-0.7819435596466064,0.2516853511333466,-15.77143859863281,-48.71588134765625,0.080322265625,2
1596231023.160967,61,0,103355.3615729167,0.4575274438039836,-1.967325872086474,0.9080129865838342,-0.3000320196151733,0.6042407751083374,-0.1003200858831406,0.09276431798934937,-0.07850652933120728,0.1965093612670898,2,0.4062984735851167,-0.6736056665380652,-0.2427099868365472,0.5676873603524233,-0.5675694346427917,-0.7882826328277588,0.2376460880041122,-15.10800933837891,-48.77126312255859,-0.577972412109375,2
1596231023.201922,62,0,103355.3916719167,0.4512690797974134,-1.931843183202665,0.9169670143408951,-0.1173509508371353,1.324483633041382,-0.423193097114563,0.1056754589080811,0.04495173692703247,0.3422760963439941,2,0.4103268692952158,-0.6626173447110246,-0.240749378150082,0.5784547976017607,-0.5690165162086487,-0.7937605381011963,0.2148597687482834,-14.52854156494141,-48.97586059570312,-1.26806640625,2
1596231023.218345,63,0,103355.4217709167,0.4550316245573223,-1.892702021130844,0.9319139364938189,-0.08555768430233002,1.554702877998352,-0.4337790608406067,0.1606778502464294,-0.1031635999679565,0.2899868488311768,2,0.4193840558649377,-0.6468725450855531,-0.237287019239034,0.5910737010603199,-0.5656698942184448,-0.8027626872062683,0.1886541545391083,-13.9329833984375,-49.09634399414062,-1.64190673828125,2
1596231023.261264,64,0,103355.4518699167,0.4544452097018993,-1.838865924017091,0.939862179508923,0.01523304730653763,1.861617684364319,-0.05931844562292099,0.3498719334602356,-0.1540176868438721,0.3762931823730469,2,0.4272077023804116,-0.6289809813012265,-0.2290848530809158,0.6077802127429548,-0.5688307881355286,-0.807476818561554,0.1562469899654388,-13.06003570556641,-49.19849395751953,-2.675506591796875,2
1596231023.278604,65,0,103355.4819689167,0.4702364593616821,-1.795449836098184,0.9347583336993976,0.7540819644927979,1.925649285316467,0.1853541731834412,0.5167940855026245,-0.004752218723297119,0.3704376220703125,2,0.4357566770192687,-0.6134165488331051,-0.2129468316595119,0.6232897351204917,-0.5790864825248718,-0.804455578327179,0.1323274821043015,-13.31482696533203,-49.10039520263672,-2.964935302734375,2
1596231023.322236,66,0,103355.5120669167,0.5182050386692463,-1.772259358793728,0.9222284775475681,1.221014857292175,2.398893594741821,0.2025612890720367,0.5163461565971375,0.02761602401733398,0.4728878736495972,2,0.4497393939031775,-0.5984732256948342,-0.1880537800559145,0.6357675167633093,-0.5918292999267578,-0.7969496846199036,0.1208714470267296,-13.37027740478516,-49.21601867675781,-1.768890380859375,2
1596231023.338807,67,0,103355.5421659167,0.5953355720644078,-1.740781932546417,0.9079050177714617,1.924594402313232,3.929744005203247,0.1192455217242241,0.08087074756622314,-0.09332925081253052,0.5662096738815308,2,0.471743050037965,-0.57403086227656,-0.1506509005884337,0.6521131459828839,-0.6065291166305542,-0.788216233253479,0.1041058748960495,-13.25834655761719,-49.30551910400391,-0.982269287109375,2
1596231023.381677,68,0,103355.5722649167,0.6984648941725605,-1.669546132099174,0.8951463992333041,2.681911706924438,6.05485200881958,0.281200110912323,0.1202492713928223,-0.3515830039978027,0.2539124488830566,2,0.5016283087659121,-0.5283920728977701,-0.09429801570892643,0.678438585311788,-0.6223580241203308,-0.7803006768226624,0.06165828555822372,-13.61332702636719,-49.26506042480469,0.82623291015625,2
1596231023.398645,69,0,103355.6023639167,0.8481266744074488,-1.589771948148407,0.8731758945852252,3.573155403137207,6.58035945892334,0.7465667128562927,-0.1251775026321411,0.1379897594451904,0.3412202596664429,2,0.5360677424502471,-0.4676814557408234,-0.01394255566734676,0.7026459260467359,-0.642280638217926,-0.7663729786872864,0.01218913681805134,-13.88535308837891,-49.06494140625,2.223297119140625,2
1596231023.444326,70,0,103355.6324619167,1.035150948791214,-1.546145666071613,0.8547629321042907,4.442910671234131,5.414464950561523,0.4759264588356018,-0.3618454337120056,0.1647158265113831,0.0354466438293457,2,0.5722614489040846,-0.405496403929109,0.07074898504549454,0.7092844067870723,-0.6561983823776245,-0.7544153332710266,-0.01617900095880032,-16.00811004638672,-48.13087463378906,6.182098388671875,2
1596231023.460516,71,0,103355.6625609167,1.244185901871193,-1.559816811023529,0.8468677518927057,4.599479675292969,4.289788246154785,0.2669902741909027,0.007172584533691406,0.428709864616394,0.1131778955459595,2,0.6110055288844877,-0.3507652589471202,0.1429075140880868,0.695135669300929,-0.6622934341430664,-0.749209463596344,-0.007271953392773867,-16.91841888427734,-47.39205932617188,8.9244384765625,2
1596231023.500266,72,0,103355.6926599167,1.447450499883999,-1.586049886087504,0.8405569483495261,4.419113636016846,4.312361717224121,0.1196971908211708,-0.1464410424232483,0.3704715967178345,-0.05815041065216064,2,0.6452706610409248,-0.2978472902760668,0.206376333663782,0.6725487944062765,-0.6669708490371704,-0.7450147271156311,0.01017446909099817,-19.28716278076172,-45.53302764892578,14.23086547851562,2
1596231023.519372,73,0,103355.7227589167,1.633124557850063,-1.575487206548019,0.8422123363824183,3.674015998840332,5.523970127105713,-0.4122573733329773,-0.572837769985199,-0.004859387874603271,0.160927414894104,2,0.6688699975408594,-0.2327542647173295,0.2708302128592843,0.6519889710101885,-0.6658068299293518,-0.7461179494857788,0.003123242640867829,-20.50971221923828,-44.12717437744141,16.48345947265625,2
1596231023.557574,74,0,103355.7528579167,1.784528932970274,-1.518775932408701,0.8608371263430795,3.130158424377441,5.667407035827637,-0.5490036606788635,0.01363354921340942,0.04717719554901123,0.03378140926361084,2,0.6770269247893335,-0.1571262487889885,0.3328080975739163,0.6373263855259287,-0.6509215235710144,-0.7583884596824646,-0.03389177098870277,-23.59075927734375,-41.96565246582031,18.43853759765625,2
1596231023.579527,75,0,103355.7829559167,1.919442297172801,-1.470482246690611,0.8814820641620464,2.677483320236206,4.072319507598877,-0.4420036971569061,0.3293181657791138,0.09626877307891846,0.012969970703125,2,0.6784134738901948,-0.08892878065682863,0.3852188473099479,0.6192362387036046,-0.6328111886978149,-0.7716823220252991,-0.06369365751743317,-25.20085906982422,-40.81681823730469,18.53680419921875,2
1596231023.621475,76,0,103355.8130549167,2.034179400643971,-1.464793842610517,0.9096584973846091,2.293578147888184,2.471150398254395,-0.9998169541358948,0.3401702642440796,0.03093290328979492,0.0557023286819458,2,0.6826949528967308,-0.03801201427218473,0.4137065392223898,0.6011072237623676,-0.6105692982673645,-0.7892941236495972,-0.0649653747677803,-27.21267700195312,-39.66100311279297,19.121826171875,2
1596231023.639392,77,0,103355.8431539167,2.13112198143441,-1.47532115040958,0.954532849035181,1.84364640712738,2.189368009567261,-1.534933567047119,0.1199479699134827,0.0595022439956665,0.2259981036186218,2,0.6872996703528857,0.008318166102975422,0.4256867597638015,0.5885074512900865,-0.5753581523895264,-0.8160437941551208,-0.05509994179010391,-27.15456390380859,-39.20647430419922,20.082763671875,2
1596231023.678743,78,0,103355.8732529167,2.215866819564362,-1.471757196143108,1.012278092416281,1.67436671257019,2.715231657028198,-1.971952557563782,0.06097531318664551,0.0692981481552124,0.3436658382415771,2,0.6857637167517423,0.05940600948471048,0.4347870718334166,0.5806543309035024,-0.527333676815033,-0.848041296005249,-0.05239810049533844,-26.76248168945312,-39.48799896240234,19.99685668945312,2
1596231023.699666,79,0,103355.9033519167,2.290726711318074,-1.446989283289525,1.081309088781494,1.246100664138794,3.310739517211914,-2.252972602844238,0.2037834525108337,-0.129547655582428,0.5633209347724915,2,0.6762030685604443,0.1171251385187096,0.4446907126300115,0.5755705462109755,-0.4665748775005341,-0.8825740814208984,-0.05806222558021545,-25.93466186523438,-40.12564849853516,19.65365600585938,2
1596231023.743238,80,0,103355.9334499167,2.331588313629104,-1.380639195421437,1.15019416862742,0.692766010761261,3.456739664077759,-2.028761625289917,0.3345635533332825,-0.1004774570465088,0.5486109852790833,2,0.6563676282179862,0.17490988809324,0.4581984486335192,0.5732735188301907,-0.4009508490562439,-0.9128432273864746,-0.07717613875865936,-25.57595825195312,-40.92544555664062,19.0025634765625,2
1596231023.760978,81,0,103355.9635489167,2.362656705360748,-1.308464443322579,1.207882373526288,1.033347368240356,3.216108798980713,-1.572479844093323,0.5399472713470459,0.06245994567871094,0.2472518682479858,2,0.6344907890990352,0.2266929277062272,0.473013402872554,0.5677062355878817,-0.342855304479599,-0.9348663687705994,-0.09206350892782211,-24.90289306640625,-41.83150482177734,17.12832641601562,2
1596231023.799131,82,0,103355.9936479167,2.401381386342737,-1.239230368673919,1.268778544584028,0.7096497416496277,3.661482810974121,-2.241296052932739,0.5279022455215454,-0.05933034420013428,0.338338315486908,2,0.6105918260257301,0.2806499958699416,0.4868104283011249,0.558058207531511,-0.2812468707561493,-0.9547382593154907,-0.09682640433311462,-24.85611724853516,-42.22005462646484,16.56903076171875,2
1596231023.82002,83,0,103356.0237469167,2.312981284142636,-1.076914904161341,1.33027726247595,-0.2136826068162918,1.552621841430664,-1.93358051776886,0.5239667892456055,-0.3600702881813049,0.2408410310745239,2,0.5826484982018172,0.3225829715633405,0.4909412696798039,0.5616386859316046,-0.2097422331571579,-0.9712144732475281,-0.1129219084978104,-23.16208648681641,-43.69886779785156,14.94515991210938,2
1596231023.860905,84,0,103356.0538459167,2.194563238761084,-0.9303717858386958,1.359143735894464,-0.4080732464790344,-0.9276527166366577,-0.4262798726558685,1.254685401916504,-0.9788762331008911,-0.9830725193023682,2,0.5666737812535336,0.3407587958673071,0.4901362708022747,0.567918095748118,-0.1684485822916031,-0.9776850938796997,-0.1255285441875458,-22.27902984619141,-44.31077575683594,14.052001953125,2
1596231023.880205,85,0,103356.0839439167,2.230977470701603,-1.062467511834867,1.365854376102186,1.12030553817749,-3.733221530914307,-0.03538868203759193,0.742950439453125,0.1987084150314331,-0.1427115201950073,2,0.5922068375131753,0.3158555719503864,0.4601019588048674,0.5812338033665571,-0.1777791827917099,-0.9790728092193604,-0.09905263781547546,-20.69158172607422,-44.54297637939453,15.28781127929688,2
1596231023.92116,86,0,103356.1140429167,2.324133512265465,-1.208619029395854,1.377749403433044,0.1494340598583221,0.07167506217956543,-0.1001851037144661,-0.2800591289997101,0.2198604345321655,0.3437715768814087,2,0.610391408457428,0.3056710945031582,0.4393664626347495,0.5839048307161978,-0.1794053763151169,-0.9814242124557495,-0.06797502189874649,-19.60201263427734,-44.25542449951172,17.07513427734375,2
1596231023.940367,87,0,103356.1441419167,2.389588069089505,-1.262017047262174,1.390977513504888,0.7191833257675171,0.6851214170455933,-0.5401797890663147,-0.8054609298706055,-0.1075794696807861,-0.004221677780151367,2,0.6112750570905441,0.3149070927947025,0.4377818254951992,0.579244075407473,-0.1703940778970718,-0.98387610912323,-0.05435265600681305,-19.05853271484375,-44.23326110839844,18.08999633789062,2
1596231023.978341,88,0,103356.1742409167,2.421485265839688,-1.268474128765131,1.413901675822063,0.396212249994278,0.5746489763259888,-0.6448748707771301,0.13453608751297,0.1456283330917358,0.1488505601882935,2,0.605999683605886,0.3309124763622567,0.4376016105602401,0.5759917165597337,-0.1491671800613403,-0.9877172708511353,-0.04652263224124908,-18.72930908203125,-44.13927459716797,18.33560180664062,2
1596231024.00059,89,0,103356.2043399167,2.518451255155255,-1.358311762954693,1.430275359518979,0.4937567412853241,-0.1994366943836212,-0.1799583435058594,0.7351011037826538,-0.03010416030883789,0.1581193208694458,2,0.6078212574143462,0.3402715478643416,0.4329217852364646,0.572142898941546,-0.1369102299213409,-0.9901431798934937,-0.02953718602657318,-18.22385406494141,-44.04441070556641,18.930419921875,2
1596231024.040771,90,0,103356.2344379167,2.560870951518716,-1.427977977286849,1.432038165299298,0.1023524254560471,-1.627512574195862,0.04097252711653709,-0.1031605005264282,-0.1568846702575684,0.1423494815826416,2,0.6153809475263394,0.3338606944863415,0.42323288438668,0.5750802621265172,-0.1369055211544037,-0.9903885126113892,-0.01968665234744549,-17.97605133056641,-44.0419921875,19.30215454101562,2
1596231024.061675,91,0,103356.2645369167,2.576181488921351,-1.484828378884447,1.437681635877535,0.08943630009889603,-0.4490792751312256,-0.4718805551528931,-0.3741625547409058,0.03325200080871582,0.09390544891357422,2,0.6239459289037675,0.3240269940050588,0.4083204777016831,0.5822135915536637,-0.1322339624166489,-0.9911532998085022,-0.01139597035944462,-16.87688446044922,-43.96559906005859,20.3809814453125,2
1596231024.101836,92,0,103356.2946359167,2.614481356136617,-1.513377903477391,1.452747857543119,0.2780162394046783,0.5987640619277954,-0.3676853477954865,-0.08599177002906799,-0.01090097427368164,0.07263290882110596,2,0.6213186825845738,0.3325412221905025,0.4060276630907024,0.5818258140535446,-0.1175830140709877,-0.9930403828620911,-0.006758860312402248,-16.54164886474609,-44.00262451171875,20.390869140625,2
1596231024.12101,93,0,103356.3247349167,2.62988703110042,-1.509621564258457,1.461780640706733,-0.1102369278669357,0.3900871872901917,-0.2310376912355423,0.2638023793697357,0.04068875312805176,0.1022790670394897,2,0.6165945178595134,0.3412993988453572,0.4089554290210402,0.5797255472380023,-0.1085993871092796,-0.994063675403595,-0.006651841569691896,-15.99302673339844,-43.94136810302734,20.41726684570312,2
1596231024.159358,94,0,103356.3548339167,2.609183655892888,-1.489708298922725,1.465724218901236,-0.07812183350324631,-0.3327489793300629,-0.08706734329462051,0.1899052560329437,-0.01976656913757324,-0.003670573234558105,2,0.61547385975393,0.3419711549629096,0.407890033270346,0.5812690009891641,-0.104536846280098,-0.9944850206375122,-0.008495314046740532,-16.00210571289062,-44.29713439941406,20.38699340820312,2
1596231024.181128,95,0,103356.3849319167,2.573695499253425,-1.459616562966927,1.467190132870687,-0.0751291960477829,0.03920632600784302,0.01543541997671127,0.06239655613899231,0.04465830326080322,-0.08373403549194336,2,0.6151933328124535,0.3402935653157331,0.406364296722836,0.5836143928865078,-0.1027847677469254,-0.994637668132782,-0.01147490553557873,-15.76770782470703,-44.14269256591797,20.26849365234375,2
1596231024.221125,96,0,103356.4150309167,2.554425822989599,-1.43493797866599,1.465156673080044,-0.09015510976314545,0.3498250246047974,0.0901179313659668,0.05132266879081726,-0.007818460464477539,-0.01112514734268188,2,0.6137152866450879,0.3408998359948082,0.4089575806249698,0.5830050108337259,-0.1044744104146957,-0.9944252967834473,-0.01428169757127762,-16.09081268310547,-44.31539916992188,19.96755981445312,2
1596231024.243576,97,0,103356.4451299167,2.544535414198111,-1.417407155903293,1.460406553383804,-0.09103624522686005,-0.03820210322737694,0.2081704884767532,0.2214930355548859,0.04471743106842041,0.1289116144180298,2,0.6124026498514686,0.3413896284293695,0.4129367273900574,0.5812912485829916,-0.1088734865188599,-0.9939132332801819,-0.01683223247528076,-16.11656188964844,-44.40766906738281,19.93887329101562,2
1596231024.283637,98,0,103356.4752289167,2.516186962326366,-1.391411307411488,1.452660202961649,-0.154540479183197,0.003512523137032986,0.2668871879577637,0.09296333789825439,-0.01318502426147461,0.06291592121124268,2,0.6127578060243684,0.3376580616264586,0.415097141723662,0.5815578687046665,-0.1159726232290268,-0.9930300116539001,-0.02102980948984623,-16.47194671630859,-44.45863342285156,19.89508056640625,2
1596231024.301703,99,0,103356.5053279167,2.499407222221816,-1.37780056932833,1.442031079605669,-0.1276061087846756,0.07364241033792496,0.4289311766624451,0.04724922776222229,-0.08245956897735596,-0.01963138580322266,2,0.6139156594872277,0.3328556396091668,0.4177595485465209,0.581198695150428,-0.1260277330875397,-0.9917212128639221,-0.0246293731033802,-16.68659973144531,-44.32514953613281,19.66867065429688,2
1596231024.343012,100,0,103356.5354259167,2.504631984580228,-1.372796496054874,1.426172922345286,-0.141258180141449,0.4102762341499329,0.506170928478241,0.0247434675693512,0.1304377317428589,0.01876252889633179,2,0.6136816773871941,0.3304843163614191,0.4258224837108769,0.5769317971843787,-0.1413050889968872,-0.9895602464675903,-0.02834983170032501,-17.71443176269531,-44.21513366699219,19.35205078125,2
1596231024.363091,101,0,103356.5655249167,2.489780171776527,-1.352436091150226,1.41434723678887,-0.08794537931680679,0.1656957119703293,0.2037437260150909,-0.3011668920516968,-0.0203167200088501,-0.09492981433868408,2,0.6129617312500142,0.3277209832533642,0.431523813059572,0.5750342397281433,-0.152113601565361,-0.9877867698669434,-0.03375374525785446,-18.14098358154297,-43.82773590087891,19.2823486328125,2
1596231024.402429,102,0,103356.5956239167,2.470690588815911,-1.321204901854191,1.408634918983657,-0.2282632142305374,0.7157819271087646,0.2095995992422104,0.120878130197525,-0.0006206035614013672,0.04534494876861572,2,0.6098427057710547,0.3288643359746516,0.4374037010944073,0.5732524665610481,-0.1564503312110901,-0.9868806004524231,-0.03988024592399597,-18.62908935546875,-43.88002777099609,18.94659423828125,2
1596231024.422229,103,0,103356.6257229167,2.453121322774657,-1.284834733469802,1.398391592381671,-0.1251780241727829,0.3120539784431458,0.3107191622257233,-0.007713198661804199,0.0827944278717041,0.004810333251953125,2,0.6055527322703851,0.3303178771937698,0.4467041564099602,0.5697822046372116,-0.1645873486995697,-0.9851750731468201,-0.04839197546243668,-19.42024230957031,-43.83731842041016,18.55450439453125,2
1596231024.460271,104,0,103356.6558219167,2.439909117748454,-1.263594663741088,1.391519114669904,-0.145933136343956,0.4061596393585205,0.1267862319946289,-0.1446038782596588,-0.03066778182983398,-0.1205644011497498,2,0.6034771026740613,0.3299304717321462,0.4515660596135973,0.5683745307137911,-0.1699714064598083,-0.9839728474617004,-0.05392254143953323,-20.11833190917969,-44.00839233398438,18.12863159179688,2
1596231024.482204,105,0,103356.6859199167,2.427544453269948,-1.23779560980452,1.385140732866595,-0.1743386536836624,0.4506180882453918,0.2785310745239258,0.1793656945228577,0.008075833320617676,0.0455939769744873,2,0.6000867659056519,0.3312493483263503,0.4578707104927602,0.5661487095214697,-0.1744515299797058,-0.9828154444694519,-0.06033948436379433,-20.34616851806641,-44.00833892822266,17.83319091796875,2
1596231024.520805,106,0,103356.7160189167,2.420044658057269,-1.221106075503527,1.371993359747561,-0.1850048303604126,-0.006374821532517672,0.4442007839679718,0.24867182970047,0.02139848470687866,0.08132481575012207,2,0.5982761305970838,0.3289888884196075,0.4649782345044071,0.5635845304964489,-0.1855446547269821,-0.9803037047386169,-0.06766396760940552,-21.17042541503906,-43.90447998046875,17.28033447265625,2
1596231024.543259,107,0,103356.7461179167,2.415224687634605,-1.224847816135305,1.359948797235913,-0.1536454409360886,-0.3845300376415253,0.2396064102649689,-0.01608654856681824,0.01960170269012451,0.00813591480255127,2,0.6006179783985226,0.3221400192411259,0.4663577158296348,0.5639099600884362,-0.196889728307724,-0.9778538942337036,-0.07096770405769348,-21.31653594970703,-43.96410369873047,17.0694580078125,2
1596231024.577631,108,0,103356.7762169167,2.403841550157823,-1.224427337533535,1.350907832663801,-0.1755139380693436,-0.154631569981575,0.3897808790206909,-0.1524389386177063,-0.05057913064956665,-0.03956729173660278,2,0.6028245270034296,0.3155599786170959,0.4661607699204398,0.5654368571893176,-0.2051678001880646,-0.9759217500686646,-0.07404898107051849,-21.35964202880859,-43.60916900634766,17.04962158203125,2
1596231024.602675,109,0,103356.8063159167,2.399241423381049,-1.214678495865069,1.338502281462714,-0.1316066980361938,0.3754925131797791,0.2902396023273468,0.01298564672470093,0.07443958520889282,0.04647254943847656,2,0.6018848348333211,0.3124169906787489,0.4717562831131377,0.5635392742878904,-0.2157674133777618,-0.9731408357620239,-0.08026053756475449,-21.99264526367188,-43.49864196777344,16.74774169921875,2
1596231024.643282,110,0,103356.8364139167,2.396310296038455,-1.200306926586492,1.329975468753362,-0.1218573451042175,0.2261343896389008,0.2292245179414749,-0.04554277658462524,0.0203966498374939,-0.04236596822738647,2,0.5993237500006233,0.3124641215074171,0.4779622340946853,0.5610076593268791,-0.222318708896637,-0.9711425304412842,-0.08635443449020386,-22.42307281494141,-43.53857421875,16.48492431640625,2
1596231024.662791,111,0,103356.8665129167,2.392550817345973,-1.19499161099253,1.327654824626622,0.04253795370459557,-0.008124316111207008,-0.4524984657764435,-0.08943405747413635,-0.02749985456466675,-0.1134814023971558,2,0.5987387774614701,0.3119791275183304,0.4792379940046192,0.5608137993367928,-0.2239523380994797,-0.9705864191055298,-0.08836179971694946,-22.81549835205078,-43.27448272705078,16.27499389648438,2
1596231024.701148,112,0,103356.8966119167,2.381490379380415,-1.184342747013251,1.330499805008211,0.1771896034479141,0.117741160094738,0.3961997628211975,0.164833277463913,0.1067965030670166,-0.06177014112472534,2,0.5978012762587339,0.3127032744595992,0.478411932645826,0.5621144676967704,-0.220440462231636,-0.9712674617767334,-0.08970059454441071,-22.54840850830078,-43.58786010742188,16.17361450195312,2
1596231024.722978,113,0,103356.9267109167,2.413938453434998,-1.213293212982945,1.322172039569848,-0.137883797287941,-0.1745592355728149,0.2878077328205109,-0.2301056087017059,-0.06916666030883789,0.1990849375724792,2,0.6000498153053292,0.3112642961159376,0.4814725650857272,0.557888200527248,-0.2305136919021606,-0.9692518711090088,-0.08610951155424118,-23.01009368896484,-43.24518585205078,16.33303833007812,2
1596231024.762557,114,0,103356.9568099167,2.404275905420366,-1.216016018735457,1.32055445627732,-0.06900820136070251,-0.3668919801712036,-0.3032606542110443,-0.1111608147621155,0.03469210863113403,-0.01260894536972046,2,0.6022734327888776,0.3070076993027243,0.478463545420247,0.5604336272653281,-0.2322168797254562,-0.9688525795936584,-0.08602596819400787,-23.01392364501953,-43.26097869873047,16.28018188476562,2
1596231024.783202,115,0,103356.98690775,2.373780344415298,-1.190619345806727,1.323495406297251,-0.1597017198801041,0.05514291301369667,0.02565392665565014,0.04650816321372986,0.01087486743927002,0.06386315822601318,2,0.6007597722729935,0.3060540333751513,0.4765941951017638,0.5641601972002092,-0.2273102253675461,-0.9695766568183899,-0.09083724766969681,-23.00450134277344,-43.46186065673828,16.24642944335938,2
1596231024.821181,116,0,103357.01700675,2.36612908925263,-1.177896108829848,1.320196063869797,-0.1465462893247604,0.3452759385108948,0.05189776793122292,-0.04711583256721497,0.002970576286315918,-0.01983112096786499,2,0.5990072294113031,0.3061326921497554,0.4793051082618284,0.5636841930064984,-0.2290901243686676,-0.9687637686729431,-0.09494622796773911,-23.00822448730469,-43.61970520019531,16.135986328125,2
1596231024.843494,117,0,103357.04710575,2.351563023894858,-1.150033967196625,1.317499403404784,-0.1141004115343094,0.5122495293617249,0.04822687804698944,0.02551224827766418,0.03111261129379272,-0.07362616062164307,2,0.5946134276096271,0.3086351928237172,0.4843794670779991,0.5626330939450538,-0.228740319609642,-0.9680914878845215,-0.102358378469944,-23.07605743408203,-43.35232543945312,15.70993041992188,2
1596231024.881118,118,0,103357.07720475,2.352398505302827,-1.134842311647619,1.313769061702446,-0.01349160168319941,0.5499975085258484,0.2024634778499603,0.08716309070587158,0.004218101501464844,-0.01462996006011963,2,0.5908735770029705,0.3117620108680898,0.4903088869255462,0.559705659509138,-0.2304312139749527,-0.9671499133110046,-0.1073457300662994,-23.40292358398438,-43.52613830566406,15.53021240234375,2
1596231024.903799,119,0,103357.10730375,2.360812379419576,-1.125747505317341,1.307742003042116,-0.01107466034591198,0.5006890296936035,0.1890411078929901,0.04054385423660278,0.0128401517868042,-0.01608693599700928,2,0.5874477727737637,0.3145362031664377,0.4972563535651892,0.5556153617404628,-0.2347019761800766,-0.9656002521514893,-0.1119441837072372,-23.78415679931641,-43.52740478515625,14.85321044921875,2
1596231024.943353,120,0,103357.13740175,2.368860317551989,-1.122882787715827,1.302611222739001,0.002859509550035,0.2193151563405991,0.2116611897945404,0.06595110893249512,0.01303112506866455,-0.06839281320571899,2,0.5855793981918715,0.3157796215360722,0.5019573458703329,0.5526471723836704,-0.2388423383235931,-0.9642534255981445,-0.1147599965333939,-24.2479248046875,-43.51035308837891,14.73117065429688,2
1596231024.963794,121,0,103357.16750075,2.380654472507215,-1.131914259582009,1.29652548050709,-0.007919972762465477,-0.06232575327157974,0.1997134834527969,0.06082242727279663,0.01027923822402954,-0.0033455491065979,2,0.5861396269665614,0.3144763954309781,0.5044920394228543,0.5504842492913635,-0.2451769411563873,-0.9626229405403137,-0.1150898709893227,-24.80089569091797,-43.18941497802734,14.658447265625,2
1596231025.001794,122,0,103357.19759975,2.386576406915929,-1.142690291137567,1.29264074953749,0.01097000762820244,-0.26129350066185,0.07498738914728165,-0.03093802928924561,0.0564921498298645,0.01238799095153809,2,0.5880327394784304,0.311802853695516,0.5041842830846029,0.5502681058422996,-0.2498033940792084,-0.9615635275840759,-0.11399295181036,-24.83773803710938,-43.03089904785156,14.69537353515625,2
1596231025.024073,123,0,103357.22769875,2.389402161337239,-1.155564545341175,1.293455864866523,0.04217908531427383,-0.4003017544746399,-0.07528969645500183,-0.068849116563797,0.01895320415496826,-0.01283955574035645,2,0.5908052849379125,0.3093921519933543,0.5009116982935207,0.5516459796521579,-0.2505326867103577,-0.9617870450019836,-0.1104512214660645,-24.48883819580078,-42.85244750976562,14.73828125,2
1596231025.061283,124,0,103357.25779775,2.394898321843735,-1.171250900994538,1.295897768352522,0.09910885989665985,-0.1820440590381622,-0.02754815295338631,-0.01447799801826477,0.02365642786026001,-0.03656268119812012,2,0.5937923431991434,0.3075933301141465,0.4970156486130726,0.5529671689020621,-0.2500701546669006,-0.9624527096748352,-0.1055939942598343,-24.39039611816406,-42.96689605712891,15.29058837890625,2
1596231025.08422,125,0,103357.28789575,2.40088626464888,-1.179516485410326,1.29684544390229,0.06973585486412048,-0.08942241221666336,0.008250175975263119,-0.03530040383338928,0.01296097040176392,0.02987873554229736,2,0.5948898918985183,0.307438253080492,0.4959167752149396,0.5528602749308549,-0.2500909566879272,-0.9627095460891724,-0.103175476193428,-24.65399169921875,-42.99163055419922,15.51654052734375,2
1596231025.122005,126,0,103357.31799475,2.410423262211777,-1.19472674413656,1.296761134522566,0.1312877833843231,-0.3452385067939758,0.07699365168809891,0.04968178272247314,-0.03633320331573486,0.002573132514953613,2,0.597194869436359,0.3060447574792086,0.4940468053807887,0.5528227924857114,-0.2517074048519135,-0.9626867175102234,-0.09938979148864746,-24.29193878173828,-43.05033111572266,15.66583251953125,2
1596231025.144458,127,0,103357.34809375,2.423971292703059,-1.217332993720547,1.293894014813246,0.0179922878742218,-0.264971137046814,0.1657124310731888,0.04946711659431458,0.03801047801971436,0.01555389165878296,2,0.6008300337029279,0.3028011407840937,0.4919155713262136,0.5525703276802574,-0.2564774453639984,-0.961906909942627,-0.09462948143482208,-24.44069671630859,-42.76210021972656,15.80831909179688,2
1596231025.18073,128,0,103357.37819275,2.429942838152608,-1.228608530773396,1.290019535171308,-0.04690136015415192,-0.05938300862908363,0.0996592715382576,-0.0192895233631134,0.003893554210662842,0.06730479001998901,2,0.6028860095077979,0.3000627285018039,0.4913773230290474,0.5523037743288942,-0.2610374689102173,-0.9608404636383057,-0.09298163652420044,-24.34764862060547,-42.89947509765625,16.00186157226562,2
1596231025.204651,129,0,103357.40829175,2.420833254180236,-1.216651370804515,1.286794594002378,-0.1154344007372856,0.233390599489212,0.08674448728561401,0.02639347314834595,-0.012459397315979,0.02054101228713989,2,0.6014578229970293,0.2994385267316316,0.4934636083832251,0.5523394887563091,-0.2628116607666016,-0.9599418640136719,-0.09717011451721191,-24.51333618164062,-42.85206604003906,16.09228515625,2
