loggingTime,loggingSample,identifierForVendor,motionTimestamp_sinceReboot,motionYaw,motionRoll,motionPitch,motionRotationRateX,motionRotationRateY,motionRotationRateZ,motionUserAccelerationX,motionUserAccelerationY,motionUserAccelerationZ,motionAttitudeReferenceFrame,motionQuaternionX,motionQuaternionY,motionQuaternionZ,motionQuaternionW,motionGravityX,motionGravityY,motionGravityZ,motionMagneticFieldX,motionMagneticFieldY,motionMagneticFieldZ,motionMagneticFieldCalibrationAccuracy
1596231035.996083,1,0,103368.1836529167,2.228650395971239,-1.141909344418895,1.301659680629868,-0.04948907718062401,0.0993015468120575,0.04038447514176369,-0.04861593246459961,0.003763794898986816,0.03389668464660645,2,0.6106278820850017,0.2680397165568896,0.4565322696369968,0.588953830602436,-0.2418166249990463,-0.9640008211135864,-0.1105765998363495,-21.21502685546875,-43.88466644287109,16.16400146484375,2
1596231036.014494,2,0,103368.2137519167,2.225810166017255,-1.138184821924744,1.301847892499792,-0.007570987567305565,-0.04601848870515823,-0.008692115545272827,0.007454335689544678,0.02189618349075317,-0.02904951572418213,2,0.6101585335266571,0.2683397376800115,0.4567718929793594,0.5891179994177633,-0.241238996386528,-0.964050829410553,-0.1114007011055946,-21.45880126953125,-44.16131591796875,16.02523803710938,2
1596231036.040293,3,0,103368.2438509167,2.227321696573401,-1.139783328583338,1.301944909361196,-0.00956396572291851,0.05923724174499512,-0.01842383295297623,-0.05029761791229248,0.02274644374847412,-0.01217693090438843,2,0.6103209040928607,0.2683662801740218,0.4566979569607216,0.5889950312094722,-0.2413318157196045,-0.9640766382217407,-0.110975868999958,-21.30166625976562,-44.22746276855469,16.04208374023438,2
1596231036.070181,4,0,103368.2739489167,2.239967349855989,-1.153051995410445,1.30256378878488,0.01544628757983446,-0.07233293354511261,0.01237050723284483,0.007444292306900024,0.01513051986694336,-0.01348096132278442,2,0.6116508815755739,0.2685558224791497,0.4561650761213282,0.587940993531691,-0.2422375828027725,-0.9642408490180969,-0.1075219362974167,-21.32566833496094,-44.00972747802734,16.28936767578125,2
1596231036.100767,5,0,103368.3040479167,2.242351173728766,-1.157412917133923,1.301056020548824,0.06257766485214233,-0.06745109707117081,0.1383768320083618,0.01512622833251953,-0.008545398712158203,-0.02473372220993042,2,0.6123318601930259,0.2674424743831181,0.4560184091095704,0.5878534139432654,-0.2440352588891983,-0.963840126991272,-0.1070484295487404,-21.35232543945312,-44.0711669921875,16.26968383789062,2
1596231036.130377,6,0,103368.3341469167,2.24456659103119,-1.1569823592226,1.301667747940826,0.02081101574003696,0.3631293773651123,-0.3015585541725159,-0.03594401478767395,0.08794844150543213,0.1074107885360718,2,0.6119339914130979,0.2684745868501635,0.4566035460876912,0.5873428173018038,-0.2434492260217667,-0.9640029668807983,-0.1069163754582405,-21.33506774902344,-43.85443115234375,16.35025024414062,2
1596231036.161666,7,0,103368.3642459167,2.238132589741917,-1.144529998994538,1.309648377490098,0.1022876128554344,0.1263127624988556,-0.06263734400272369,0.08066922426223755,-0.04024136066436768,-0.04404366016387939,2,0.6099338109083099,0.2731358727699205,0.4559356615078622,0.5877928420435095,-0.2350865304470062,-0.9660942554473877,-0.1067550852894783,-21.00960540771484,-44.15456390380859,16.38388061523438,2
1596231036.190705,8,0,103368.3943439167,2.246352189939525,-1.151592339485291,1.308674383896766,0.0518806204199791,-0.1318345963954926,0.06993664801120758,0.0676654577255249,0.007018804550170898,-0.0581585168838501,2,0.6104261219878996,0.2732076772591374,0.4565099870522149,0.5868017442390927,-0.2366937547922134,-0.9658423066139221,-0.1054750308394432,-21.14237213134766,-44.05471801757812,16.47589111328125,2
1596231036.220973,9,0,103368.4244429167,2.26032538849731,-1.171787169956667,1.309942982322408,0.1354924440383911,-0.2442173659801483,-0.02074901387095451,0.06330594420433044,0.04577267169952393,-0.04708999395370483,2,0.6131078518659827,0.2720290864761805,0.4540213056006859,0.5864842897027701,-0.2376464903354645,-0.9661702513694763,-0.1001978740096092,-21.17315673828125,-44.10353851318359,16.453369140625,2
1596231036.250794,10,0,103368.4545419167,2.275499845761158,-1.191850601223543,1.311226283974302,0.1677895188331604,-0.115704745054245,0.03135304152965546,-0.063131183385849,0.009273052215576172,-0.005946636199951172,2,0.6155720578950012,0.2712848542886646,0.4518916510766731,0.5858921727770799,-0.2384563982486725,-0.9665004014968872,-0.09495113790035248,-21.09316253662109,-44.01669311523438,16.70489501953125,2
1596231036.283457,11,0,103368.4846409167,2.305799960679707,-1.223528325787443,1.315121399029287,0.4977190792560577,-0.03418177366256714,-0.07316430658102036,-0.1055572926998138,0.01369708776473999,-0.08477556705474854,2,0.6185003184285908,0.2728053189210934,0.449725745814092,0.5837650000567878,-0.2378026396036148,-0.9674928188323975,-0.08606922626495361,-21.28469085693359,-44.07966613769531,16.92849731445312,2
1596231036.310964,12,0,103368.5147389167,2.342293741794037,-1.256708619578177,1.321701932481656,0.2275923788547516,0.2165510058403015,-0.1497877389192581,-0.01480776071548462,0.03652715682983398,0.05058330297470093,2,0.6206989493134853,0.2768585393173392,0.4479659057272053,0.5808691177500682,-0.2344667762517929,-0.9691360592842102,-0.07616432756185532,-20.93309020996094,-43.72743988037109,17.62115478515625,2
1596231036.344823,13,0,103368.5448379167,2.375868382465697,-1.285609054836659,1.327239971630161,0.3689130246639252,0.006601830013096333,-0.05795478448271751,-0.05795517563819885,-0.003226637840270996,-0.06292134523391724,2,0.6222188866664121,0.2809279344668799,0.4469522321183794,0.5780632505430418,-0.2314160168170929,-0.9704864621162415,-0.06784630566835403,-20.98370361328125,-43.70025634765625,17.876953125,2
1596231036.371128,14,0,103368.5749369167,2.412032325478514,-1.315792446028337,1.332857810047621,0.3306342363357544,0.3055316209793091,-0.1203933730721474,-0.02798363566398621,-0.004660964012145996,-0.04783844947814941,2,0.6235029056448543,0.2855110457270142,0.4462034527572395,0.5750044588695633,-0.2280780524015427,-0.9718259572982788,-0.05945513769984245,-20.52595520019531,-43.39174652099609,18.34951782226562,2
1596231036.407015,15,0,103368.6050359167,2.458311243658203,-1.349236387113029,1.339173722585967,0.3994112908840179,0.4202423095703125,-0.1273146271705627,0.0156644880771637,0.04876923561096191,-0.06223630905151367,2,0.6238228069378495,0.2926126920535586,0.4470537637500028,0.5704087583851808,-0.2239469885826111,-0.9732952117919922,-0.05044583603739738,-20.69806671142578,-43.40603637695312,18.64227294921875,2
1596231036.431422,16,0,103368.6351339167,2.512747115842162,-1.391756907635745,1.345631123552117,0.5433597564697266,0.2630390524864197,-0.1369814276695251,-0.001062691211700439,0.03685474395751953,-0.07184922695159912,2,0.6246954844087876,0.2997920520419722,0.4472525216526529,0.5655489362523851,-0.2196991145610809,-0.9747572541236877,-0.03976055607199669,-20.76947784423828,-43.13414764404297,18.82843017578125,2
1596231036.464555,17,0,103368.6652329167,2.588952069469703,-1.460608762475067,1.353707693805039,0.5622345805168152,0.1754668802022934,-0.2180708646774292,0.08735957741737366,0.05979889631271362,0.06895804405212402,2,0.6276049533879164,0.3070332421118408,0.4447196108729541,0.560417223739442,-0.2140830308198929,-0.9765286445617676,-0.02368522062897682,-20.63240051269531,-42.96731567382812,19.18832397460938,2
1596231036.491934,18,0,103368.6953319167,2.643687160575274,-1.510278764054264,1.359580238027608,0.3342825472354889,0.02902445197105408,-0.1013244539499283,-0.01389786601066589,-0.01944118738174438,-0.05755603313446045,2,0.6293837882936453,0.3123077830827641,0.4426895223360344,0.5571051656133718,-0.2092666625976562,-0.9777767062187195,-0.01267979107797146,-20.51981353759766,-42.44899749755859,20.25592041015625,2
1596231036.525728,19,0,103368.7254309167,2.710592676741557,-1.57313947279569,1.365725903013157,0.4620818495750427,0.1618291735649109,-0.2813945114612579,-0.01071038842201233,0.04280531406402588,0.01818573474884033,2,0.6317919005928618,0.3179269875786532,0.4397112310303294,0.5535481788339994,-0.2036361843347549,-0.979046642780304,0.0004771501698996872,-20.49737548828125,-42.60669708251953,20.481689453125,2
1596231036.551791,20,0,103368.7555289167,2.764468527367557,-1.618400030763932,1.37209530711072,0.3616030216217041,0.3042581081390381,-0.1633712351322174,-0.09740138053894043,-0.01481407880783081,-0.09642922878265381,2,0.6320113826621714,0.3244352922623366,0.4385482341510598,0.5504353153377347,-0.1971736699342728,-0.9803237915039062,0.009393293410539627,-20.05172729492188,-42.36628723144531,20.76205444335938,2
1596231036.584845,21,0,103368.7856279167,2.831732702357967,-1.673338191560092,1.378158385189626,0.4329330325126648,0.31967893242836,-0.2619187831878662,0.1230857670307159,0.05814331769943237,0.1165378093719482,2,0.6318878122194187,0.3324400486958853,0.43804536909443,0.5461847492488108,-0.1904436945915222,-0.9815025925636292,0.01959718577563763,-20.34925079345703,-42.26422882080078,21.0491943359375,2
1596231036.611895,22,0,103368.8157269167,2.887714875148007,-1.723339275630697,1.380602042169077,0.195137083530426,0.04611420258879662,0.05866076797246933,0.2326826155185699,-0.06128889322280884,0.1623663902282715,2,0.6329621194227208,0.3372272536510432,0.4368684484350781,0.5429389918988248,-0.1868547052145004,-0.9819675087928772,0.02872653119266033,-20.08709716796875,-41.94189453125,21.60360717773438,2
1596231036.647599,23,0,103368.8458259167,2.898932732539766,-1.737039262277153,1.374130871610473,0.05149597674608231,-0.2354940921068192,0.2863406836986542,0.1273179054260254,-0.06847018003463745,0.07980513572692871,2,0.6354220872829873,0.3352701007927908,0.4371231706627259,0.541069435907611,-0.1927066296339035,-0.9807236194610596,0.03233454003930092,-20.06195068359375,-42.05834197998047,21.83425903320312,2
1596231036.67215,24,0,103368.8759239167,2.900078344242063,-1.74533836103281,1.364888536862709,0.09470442682504654,-0.1808830797672272,0.3295392692089081,0.1722439229488373,0.07208168506622314,0.02187275886535645,2,0.6389851549341719,0.3308332131866518,0.4369887191113672,0.539711302717414,-0.2013497650623322,-0.9788757562637329,0.03550528734922409,-20.44715881347656,-42.02140808105469,21.79672241210938,2
1596231036.703755,25,0,103368.9060229167,2.90101145796498,-1.741987690369283,1.352595034917872,0.05078498274087906,0.4729736149311066,0.4604804217815399,-0.1331657767295837,-0.0768733024597168,-0.005718111991882324,2,0.6406607102136022,0.3286225135745012,0.4412185709774372,0.5356186817982004,-0.2133100926876068,-0.976288378238678,0.03687780350446701,-21.00795745849609,-41.70235443115234,21.96728515625,2
1596231036.732356,26,0,103368.9361219167,2.897172196889445,-1.721505809047751,1.34231223264327,-0.07417231798171997,0.6613829135894775,0.1269081979990005,-0.3701506555080414,0.01882457733154297,0.1387484073638916,2,0.6388440300283252,0.3299724540892399,0.4491811493130442,0.5303141490084549,-0.2239352762699127,-0.9740108847618103,0.03400703147053719,-21.66499328613281,-41.36390686035156,21.959228515625,2
1596231036.763079,27,0,103368.9662209167,2.877426796014847,-1.687430335405078,1.34268819651741,-0.1952553987503052,0.2998803555965424,0.0364396832883358,0.3607622385025024,0.03568041324615479,0.4653482437133789,2,0.6343404971829638,0.3328209654958717,0.4547060932159783,0.5292303716404999,-0.2245990484952927,-0.9740959405899048,0.02631532214581966,-22.21192169189453,-41.35718536376953,21.24774169921875,2
1596231036.792765,28,0,103368.99631875,2.820876232304684,-1.628423549297414,1.332981543065364,-0.6995090246200562,-0.5293620228767395,0.7602068185806274,0.7478262186050415,-0.1463400721549988,0.2784731388092041,2,0.6319928098558933,0.3276724681051665,0.4608352014916307,0.5299499145900387,-0.2351890802383423,-0.971855103969574,0.01356831658631563,-22.49330139160156,-41.60024261474609,20.9110107421875,2
1596231036.82391,29,0,103369.02641775,2.717789210026385,-1.574599934954114,1.303387197197317,-0.8615841865539551,-2.203898429870605,1.037089943885803,0.07629796862602234,0.1528326272964478,0.06444907188415527,2,0.6406913204235722,0.3000285867959303,0.4581961826343704,0.5381022024088362,-0.2642325460910797,-0.964458703994751,0.001005041878670454,-23.05926513671875,-41.34384918212891,20.57864379882812,2
1596231036.852771,30,0,103369.05651675,2.635210183773891,-1.546907252244658,1.279214760273122,-0.6232170462608337,-1.003237962722778,0.6561836004257202,0.03072574734687805,-0.04225146770477295,0.04142343997955322,2,0.649624497844163,0.2730470049542997,0.4513137672803773,0.5474937307952646,-0.2873859107494354,-0.9577904343605042,-0.006866689771413803,-23.00241851806641,-41.62200927734375,20.74517822265625,2
1596231036.888104,31,0,103369.08661475,2.579649516989998,-1.513904422390584,1.248614674706487,-0.6176583766937256,-0.4877781569957733,1.566560029983521,0.8917257785797119,-0.8221762180328369,-0.02038991451263428,2,0.6531503130943312,0.2537567309542935,0.4553760358170059,0.5492130999937939,-0.3161249458789825,-0.9485468864440918,-0.01800438016653061,-23.45534515380859,-41.41288757324219,20.57977294921875,2
1596231036.913007,32,0,103369.11671375,2.510756113352211,-1.466093158686033,1.175718494652505,-1.501688718795776,-1.354232668876648,3.390502452850342,1.901022434234619,-1.432018280029297,-0.3325181007385254,2,0.6571882856007183,0.2190690213867173,0.4727640774053704,0.5446161315089628,-0.3827729821205139,-0.9229665994644165,-0.04022464156150818,-24.88227844238281,-40.93402099609375,20.32504272460938,2
1596231036.943743,33,0,103369.14681275,2.427328163733283,-1.464755519511401,1.043786840451549,-2.07334303855896,-2.789152383804321,4.475936412811279,0.991022527217865,-0.9997820258140564,0.4844884872436523,2,0.6726461973749809,0.1446732801248839,0.4873971414365731,0.5376439582810678,-0.5001262426376343,-0.8643150329589844,-0.05323347076773643,-28.63065338134766,-38.45330810546875,19.55087280273438,2
1596231036.973112,34,0,103369.17691175,2.321193563453737,-1.502779875834722,0.9142608041908746,-2.768347501754761,-5.723203659057617,3.698265314102173,0.4045747518539429,-0.01864725351333618,0.6661333441734314,2,0.69036734953604,0.05148887053069406,0.4811546203842677,0.5378030988404139,-0.6089651584625244,-0.7921116352081299,-0.04148363694548607,-30.39382934570312,-37.12892913818359,19.96624755859375,2
1596231037.003475,35,0,103369.20700975,2.186408530097374,-1.600079439014286,0.8108711217553225,-3.115125894546509,-7.222603797912598,3.091050863265991,0.0210191011428833,0.7744963765144348,0.9654744863510132,2,0.7117632763468966,-0.05897194730504926,0.4385080188507844,0.5455513833985239,-0.6885722875595093,-0.7248875498771667,0.02016930468380451,-30.73692321777344,-35.26641845703125,22.47201538085938,2
1596231037.03326,36,0,103369.23710875,2.046044439650366,-1.721892293014376,0.7316535243587861,-3.177085876464844,-6.812062740325928,2.745176076889038,-0.16131991147995,0.7659201622009277,0.8348227739334106,2,0.7260545303592361,-0.1698359398067546,0.3782500402098455,0.5485688440905854,-0.7355937361717224,-0.668100893497467,0.1119988560676575,-29.61357879638672,-34.86182403564453,24.43399047851562,2
1596231037.064068,37,0,103369.26720775,1.89264229570557,-1.781197005915631,0.6777986498441878,-3.690843105316162,-3.625895261764526,2.271713256835938,-0.1985099911689758,0.4121065139770508,0.4555834531784058,2,0.7170965620602648,-0.2590667818962852,0.330108163517603,0.5564940298527609,-0.7617771029472351,-0.6270797848701477,0.1626861542463303,-26.85725402832031,-35.19398498535156,26.28057861328125,2
1596231037.093895,38,0,103369.29730675,1.744916315628945,-1.76083915730354,0.6412456764750526,-3.469889163970947,-1.08255660533905,1.569684743881226,-0.3084219098091125,0.4323663711547852,0.3115785121917725,2,0.6894691480073605,-0.3167338215496857,0.3066691227311851,0.5746878582323246,-0.7869239449501038,-0.5981941223144531,0.1513760387897491,-26.49636077880859,-35.83776092529297,25.46084594726562,2
1596231037.125667,39,0,103369.32740475,1.601517592836153,-1.683770975560584,0.630636028076029,-3.988765954971313,0.3082301020622253,0.2838827073574066,-0.2121514081954956,0.5760564804077148,0.3117797374725342,2,0.652867590011335,-0.3453824923438824,0.2935438906639019,0.6068829424134254,-0.8025040626525879,-0.5896585583686829,0.09105031192302704,-27.42424774169922,-38.02018737792969,21.53994750976562,2
1596231037.153789,40,0,103369.35750375,1.451094089978969,-1.578187289246917,0.648984187008331,-3.920309782028198,0.5327666401863098,-0.9982879161834717,-0.02279281616210938,0.5819761753082275,0.07756352424621582,2,0.6143905044571777,-0.3542152809721431,0.2737787600341429,0.6496931970784424,-0.7966766357421875,-0.6043774485588074,0.005888314452022314,-27.78559112548828,-40.61670684814453,15.21969604492188,2
1596231037.183818,41,0,103369.38760275,1.313851706473115,-1.505857170895287,0.6931429620940561,-3.11101770401001,-1.891888856887817,-2.123709678649902,0.3206126093864441,0.5649721026420593,-0.3409092426300049,2,0.5890175071184698,-0.3579091686607974,0.2351934500145987,0.6853054500771292,-0.767620325088501,-0.6389580368995667,-0.04991880804300308,-26.85411834716797,-42.28986358642578,12.33480834960938,2
1596231037.214002,42,0,103369.41770175,1.190908205488349,-1.531148315428193,0.7550215035036102,-2.841876983642578,-4.793018341064453,-2.075357675552368,0.4981881380081177,0.03320908546447754,-0.1984347105026245,2,0.5813192202409042,-0.384232707996511,0.1644478078136008,0.69813344688055,-0.7276847362518311,-0.6853043437004089,-0.02886638045310974,-22.35107421875,-45.4097900390625,9.60101318359375,2
1596231037.245339,43,0,103369.44779975,1.061195846431982,-1.583074311505215,0.7998648869220927,-3.288393259048462,-4.576329231262207,-0.8562647700309753,0.2335810661315918,-0.6374092102050781,0.1672664880752563,2,0.5676099003036459,-0.4267277429961947,0.08864893300907611,0.6984725494955594,-0.6967512369155884,-0.7172619700431824,0.008555131033062935,-19.75409698486328,-46.44028472900391,8.6739501953125,2
1596231037.274166,44,0,103369.47789875,0.9266488475499698,-1.641955134622028,0.818024243809595,-2.727709293365479,-5.909468173980713,-0.4338815212249756,-0.002021729946136475,0.1841976046562195,0.08469820022583008,2,0.5425487681215154,-0.4795254867129373,0.01909837019641186,0.689442917632739,-0.6819344758987427,-0.7297965288162231,0.0486077181994915,-17.43472290039062,-47.67598724365234,6.057769775390625,2
1596231037.304467,45,0,103369.50799775,0.8095189220889527,-1.72172285231742,0.844429269925502,-2.975282907485962,-4.358576774597168,-0.6370688080787659,0.0283777117729187,0.2964471578598022,0.4870836734771729,2,0.5179384686145456,-0.5307251943230986,-0.0515369114214615,0.6688905596908052,-0.6566082239151001,-0.7475921511650085,0.09985897690057755,-16.19929504394531,-48.2998046875,5.199981689453125,2
1596231037.334651,46,0,103369.53809675,0.658631792345455,-1.683886245075472,0.8900707690881151,-3.512943983078003,-1.232411861419678,-1.747292995452881,-0.7854610085487366,0.2199496030807495,0.2283707857131958,2,0.489041795885045,-0.5443797436859062,-0.1094564825453765,0.6726873962579444,-0.6253371834754944,-0.7771162986755371,0.07102236896753311,-14.26658630371094,-48.77826690673828,1.015350341796875,2
1596231037.365686,47,0,103369.56819475,0.5889554083768788,-1.67861951003312,0.95882328901229,1.123546361923218,-2.091631889343262,-1.862947583198547,-0.4422677755355835,0.5424856543540955,1.096507906913757,2,0.4864881432494618,-0.5424395325524526,-0.1564658243260217,0.6667887448316228,-0.571147620677948,-0.8185161352157593,0.06182271987199783,-12.58281707763672,-49.09984588623047,-1.44134521484375,2
1596231037.394926,48,0,103369.59829375,0.6621179425378341,-1.810424807034145,0.9569108172380123,-1.675624251365662,0.07213223725557327,1.75804877281189,-1.201545834541321,-0.3257714509963989,-0.3058723211288452,2,0.4958288485480524,-0.5679030409100372,-0.1642911673317649,0.6361197508744946,-0.5595880746841431,-0.8174159526824951,0.1367202252149582,-10.21857452392578,-49.52242279052734,1.129547119140625,2
1596231037.425102,49,0,103369.62839275,0.6196017627881014,-1.726407037476069,0.9253477908289759,1.857317447662354,1.00645387172699,-0.05169441178441048,-0.5727677941322327,0.7968193292617798,0.5620704889297485,2,0.4836343242711361,-0.5592079573152786,-0.145709120767256,0.6573836842864477,-0.5942885279655457,-0.7988300323486328,0.09323139488697052,-11.73388671875,-49.23318481445312,-0.2772216796875,2
1596231037.455065,50,0,103369.65849175,0.6755223378344752,-1.716772584748867,0.9699110285128268,-0.4941180944442749,0.4993056356906891,-2.809064388275146,0.3452354669570923,-0.1410946846008301,0.3293039798736572,2,0.5093641603920209,-0.5307233623053432,-0.1412271456146881,0.6625223915198425,-0.559360146522522,-0.8248354196548462,0.08223827183246613,-10.75843811035156,-49.58104705810547,0.614501953125,2
1596231037.485165,51,0,103369.68858975,0.694849664342326,-1.733644980558947,1.029594103715825,-0.1068535298109055,-0.9618114233016968,-0.5224806666374207,1.167010307312012,-1.020274639129639,-0.5730308294296265,2,0.5255394241910415,-0.5153351356125632,-0.161076194428217,0.657489694119423,-0.5083513259887695,-0.8570899367332458,0.08352397382259369,-8.374343872070312,-49.85857391357422,0.300018310546875,2
1596231037.515193,52,0,103369.71868875,0.677016726705908,-1.753524337930465,1.018140626603468,0.06019111722707748,-1.337399125099182,0.7473509907722473,0.5158594846725464,-0.1511913537979126,-0.5984585285186768,2,0.5169425336057014,-0.5295899166565359,-0.1678859618726898,0.6512445271162889,-0.5162102580070496,-0.851133406162262,0.09539012610912323,-7.3194580078125,-49.93737030029297,0.324859619140625,2
1596231037.544912,53,0,103369.74878775,0.6745970941533289,-1.774604548389449,1.004777890198761,0.1788619458675385,0.001935730688273907,0.2073667943477631,0.176896870136261,-0.07895761728286743,-0.02574872970581055,2,0.5118423857053744,-0.54063715981844,-0.1691530884209843,0.6458452868643304,-0.525176465511322,-0.8440428972244263,0.1085423305630684,-8.015968322753906,-49.88934326171875,0.276702880859375,2
1596231037.575322,54,0,103369.77888675,0.6796512503485233,-1.771642860327005,0.9924676768715931,0.1261176466941833,0.09370321035385132,0.5617587566375732,0.02792596817016602,-0.04920101165771484,0.1532549858093262,2,0.510992118022485,-0.5416757828990999,-0.1621932793125467,0.6474317847613952,-0.5356372594833374,-0.8373774290084839,0.1090511977672577,-8.721710205078125,-50.02647399902344,0.663330078125,2
1596231037.605444,55,0,103369.80898475,0.6859080533829546,-1.764453476798846,0.9805656129524725,0.2011944204568863,0.8194385170936584,0.06379768997430801,-0.1808836460113525,0.01048845052719116,0.1768617630004883,2,0.5108515545274122,-0.5409109949824997,-0.1539093752029742,0.650198422959789,-0.5461492538452148,-0.8308122754096985,0.1071080341935158,-9.2684326171875,-50.0458984375,0.8277587890625,2
1596231037.63532,56,0,103369.83908375,0.6857367220247793,-1.741757408124422,0.982833204430833,-0.1806510388851166,0.5854212045669556,-0.1296694278717041,-0.2847086787223816,-0.008757352828979492,0.1761852502822876,2,0.5129886596430062,-0.5329402430819896,-0.1489946712641035,0.6562149753322952,-0.5465815663337708,-0.8320721983909607,0.09436533600091934,-9.313880920410156,-49.99222564697266,0.680999755859375,2
1596231037.665939,57,0,103369.86918275,0.6757437415726004,-1.713096198796329,0.9905813360745945,-0.2078395336866379,0.9344079494476318,-0.3764121234416962,-0.1672213077545166,0.05351215600967407,0.2583719491958618,2,0.5140983041937794,-0.5240001105707203,-0.1477737358624198,0.6627894870516088,-0.5426630973815918,-0.836344838142395,0.07774636149406433,-9.071281433105469,-49.93423461914062,0.28424072265625,2
1596231037.695781,58,0,103369.89928075,0.6672150529379831,-1.669415419983407,1.007225421172341,-0.2831967771053314,1.512357234954834,-0.5786910653114319,0.09423470497131348,-0.105262815952301,0.3951507806777954,2,0.5186931163738683,-0.5072044393933286,-0.1453764450944391,0.6727308679626446,-0.5316126346588135,-0.8453528881072998,0.0525977835059166,-8.636573791503906,-49.76175689697266,0.120513916015625,2
1596231037.725482,59,0,103369.92937975,0.647193008028227,-1.607005057034378,1.019918763565529,-0.4802828133106232,1.585204005241394,-0.2811871767044067,-0.08484417200088501,-0.2188341617584229,0.1954550743103027,2,0.5210321840373857,-0.4878522943886102,-0.1404723178869587,0.6861438117459374,-0.5230924487113953,-0.8520655035972595,0.01894879527390003,-7.863182067871094,-50.24160766601562,-0.9031982421875,2
1596231037.755757,60,0,103369.95947875,0.6220485528116207,-1.528346590074011,1.029888875382062,-0.3554913997650146,2.123643398284912,-0.3591034114360809,-0.1605610847473145,-0.1400846242904663,0.1120486855506897,2,0.5227902108185973,-0.4645047738692331,-0.1321303750225005,0.7024724064321705,-0.5144506096839905,-0.8572417497634888,-0.02185142040252686,-7.270713806152344,-50.02395629882812,-1.430145263671875,2
1596231037.785758,61,0,103369.989577375,0.5957878669127016,-1.43387024793344,1.042003847306252,-0.3706912696361542,2.758785486221313,-0.5493769645690918,-0.02793848514556885,0.1474107503890991,0.3098105788230896,2,0.5259583145844697,-0.4346684501985614,-0.1207578200814703,0.7210054800674059,-0.4997695088386536,-0.8634169101715088,-0.06886237859725952,-6.376029968261719,-50.16565704345703,-2.627960205078125,2
1596231037.815912,62,0,103370.019675375,0.5796418282825072,-1.331027010597821,1.05850100754707,0.008894330821931362,3.011861562728882,-0.4879752397537231,0.06172370910644531,0.06544286012649536,0.539027988910675,2,0.5328976456840924,-0.397261315631415,-0.1047074678915024,0.739756724823159,-0.4761567413806915,-0.8716216683387756,-0.1164070889353752,-5.640365600585938,-50.10845184326172,-3.002655029296875,2
1596231037.845934,63,0,103370.049774375,0.5895304743938329,-1.240955078433307,1.065251656122072,0.616321325302124,3.867542266845703,0.1303958892822266,0.03733178973197937,-0.03524184226989746,0.6131178736686707,2,0.5408395922986943,-0.3592554125934794,-0.07888989669680538,0.7564420169811203,-0.4581782221794128,-0.874910831451416,-0.1568561643362045,-4.541900634765625,-50.37356567382812,-3.186492919921875,2
1596231037.876037,64,0,103370.079873375,0.6763016597537285,-1.169142951608481,1.070235457152639,2.104092597961426,6.098955631256104,0.6583981513977051,0.05722546577453613,-0.1071770787239075,0.5476574897766113,2,0.5586609789772691,-0.3067379747274881,-0.0274887757705623,0.7701001664743955,-0.4417241215705872,-0.8773135542869568,-0.1876194477081299,-4.345649719238281,-50.28872680664062,-2.51806640625,2
1596231037.906102,65,0,103370.109972375,0.8519921190492934,-1.138110720010527,1.069688134668433,2.811257600784302,5.929618835449219,1.61881160736084,-0.06351643800735474,0.03164035081863403,0.4461104273796082,2,0.5825744169911062,-0.2447223782211767,0.04939118767934075,0.773484862239366,-0.4361262023448944,-0.8770506978034973,-0.2014360129833221,-5.602363586425781,-50.37760162353516,1.298126220703125,2
1596231037.93637,66,0,103370.140070375,1.077718037281108,-1.166436256538024,1.060030150225232,3.591662883758545,5.293545722961426,1.877615451812744,-0.1064016819000244,0.2113741636276245,0.2151954770088196,2,0.60600945025316,-0.191282612612212,0.1306039255344251,0.760990394913666,-0.4494228959083557,-0.8723702430725098,-0.1923270225524902,-7.295585632324219,-50.17691802978516,3.64056396484375,2
1596231037.966369,67,0,103370.170169375,1.326383941631672,-1.23252720905174,1.0445849157495,3.427941560745239,4.652573585510254,2.070976495742798,-0.1753473877906799,0.1152662038803101,0.1229372620582581,2,0.6291971138922423,-0.1441253560802055,0.2081846825254997,0.7348456425215943,-0.4737981855869293,-0.864716112613678,-0.1666777431964874,-11.91826629638672,-48.92607116699219,8.858184814453125,2
1596231037.996654,68,0,103370.200268375,1.539714837342205,-1.292164031894202,1.012952562370039,2.971940279006958,3.438442468643188,2.081292390823364,-0.02638983726501465,0.06666409969329834,-0.02720588445663452,2,0.6445512345960082,-0.1084254498843549,0.2762759576655301,0.7046058903941205,-0.5089424252510071,-0.8483985066413879,-0.1455952525138855,-14.8968505859375,-47.96347808837891,11.2005615234375,2
1596231038.026468,69,0,103370.230367375,1.719156208712945,-1.35960792889657,0.9774139514643525,2.71996545791626,2.198731660842896,1.754026412963867,0.1769144535064697,0.1982821226119995,-0.1160688400268555,2,0.6588216551456483,-0.08571441655771508,0.327538023311065,0.6718081911428121,-0.5467455983161926,-0.8290541172027588,-0.1172141283750534,-19.94332885742188,-45.22758483886719,14.40777587890625,2
1596231038.056627,70,0,103370.260465375,1.865387785074331,-1.42235284160018,0.946538050674101,2.427628040313721,1.787833094596863,1.215989947319031,0.07410293817520142,0.2296210527420044,-0.09713774919509888,2,0.6723508523573197,-0.06871088660679059,0.3644148736337185,0.6406442500271591,-0.5780677795410156,-0.8113968968391418,-0.08644629269838333,-24.14354705810547,-42.47571563720703,17.28952026367188,2
1596231038.086669,71,0,103370.290564375,1.989099465899478,-1.466373914301687,0.9311782109541067,2.262144804000854,1.899268984794617,0.3654957711696625,0.03964173793792725,0.1589142084121704,-0.0611875057220459,2,0.683202050173167,-0.04612202132622875,0.3930221154520313,0.6137113518901938,-0.5936382412910461,-0.8023237586021423,-0.06221543624997139,-25.33741760253906,-41.45331573486328,18.48464965820312,2
1596231038.116871,72,0,103370.320663375,2.094800881830729,-1.498122003028512,0.9372233388226747,1.896896123886108,1.671026945114136,-0.348069429397583,0.09897112846374512,0.00812375545501709,0.07677328586578369,2,0.6915279112241144,-0.01718880946700202,0.4121895456733278,0.5929532487002016,-0.5904654860496521,-0.8059173226356506,-0.04298738390207291,-26.83696746826172,-40.02278900146484,20.12014770507812,2
1596231038.146885,73,0,103370.350762375,2.176646114944743,-1.509254957701782,0.9601547657914079,1.388239860534668,2.00157618522644,-0.9652960300445557,0.2481038570404053,-0.03684604167938232,0.1395317316055298,2,0.6943387410030886,0.01615956552758346,0.4256246995708647,0.5800659330594835,-0.5723081827163696,-0.8192803263664246,-0.03526516258716583,-27.10791778564453,-39.22421264648438,20.81439208984375,2
1596231038.177088,74,0,103370.380860375,2.238024234846479,-1.504000262684763,0.9994673389830856,1.09457802772522,1.649439811706543,-1.460281848907471,0.320722222328186,-0.0142284631729126,0.1519680619239807,2,0.6921948983127049,0.05310022864898178,0.4337943185480199,0.5743425113408073,-0.5395449995994568,-0.841183066368103,-0.03609317541122437,-26.90856170654297,-39.02980804443359,20.85040283203125,2
1596231038.207327,75,0,103370.410959375,2.29063178105969,-1.508984597524824,1.048930296922131,0.963658332824707,0.9417827129364014,-1.675548315048218,0.3377746343612671,-0.04344797134399414,0.2495002746582031,2,0.6905985852236135,0.08761766509449354,0.4328904867619768,0.5727153122488404,-0.4975471496582031,-0.8668904900550842,-0.03079347684979439,-26.39669036865234,-39.38134002685547,20.98684692382812,2
1596231038.237282,76,0,103370.441058375,2.332569560687201,-1.510902935720416,1.108147637835132,0.4616477489471436,1.804127097129822,-2.225714683532715,0.4032681882381439,-0.136766791343689,0.4616749286651611,2,0.6867321448191235,0.1226422626501849,0.4271130215790079,0.5752674215950299,-0.445520281791687,-0.8948734998703003,-0.02671567350625992,-24.60532379150391,-40.16757202148438,21.0858154296875,2
1596231038.267308,77,0,103370.471156375,2.333679477842686,-1.425238516659207,1.177849526221997,0.245503842830658,3.795969247817993,-2.138705253601074,0.1923026442527771,-0.129519522190094,0.2597570419311523,2,0.6651170712026984,0.1727703512318366,0.4357951590718468,0.5812508611922743,-0.3788637816905975,-0.9237847328186035,-0.05553937330842018,-23.77489471435547,-41.23293304443359,20.48870849609375,2
1596231038.297612,78,0,103370.501255375,2.378373921764398,-1.334285999615477,1.235192300055917,1.431123852729797,4.855753421783447,-1.437480211257935,-0.03144696354866028,-0.287719190120697,0.2296523451805115,2,0.6375770418863645,0.2343318793271711,0.4609648290612484,0.5710478850071272,-0.3201717436313629,-0.9442115426063538,-0.07716817408800125,-23.58900451660156,-42.26570129394531,18.17071533203125,2
1596231038.327548,79,0,103370.531354375,2.426081016987657,-1.251120740316838,1.285423840372201,0.5950846672058105,3.363598346710205,-1.676122307777405,0.498261034488678,-0.3746852874755859,-0.1560313701629639,2,0.6091797878400999,0.2909736497527794,0.4849103209203847,0.5559644463841845,-0.2672531306743622,-0.9595568776130676,-0.08846864104270935,-23.99211120605469,-42.45469665527344,17.15673828125,2
1596231038.357732,80,0,103370.561453375,2.439910753252057,-1.198979714748645,1.33807526727591,0.5177672505378723,0.5773838758468628,-1.19970691204071,1.235082745552063,-0.08652257919311523,-0.2288458347320557,2,0.5916201150214164,0.3287725289870165,0.4879108499384347,0.5512144246792315,-0.214867427945137,-0.9730424284934998,-0.08378852903842926,-23.23987579345703,-43.32085418701172,15.99966430664062,2
1596231038.387767,81,0,103370.591551375,2.456686420941382,-1.253649172933711,1.351501938514381,0.3500405848026276,-2.271791219711304,0.2663024663925171,0.6989018321037292,-0.2266607284545898,-0.1449611186981201,2,0.6012008506076557,0.3234757370589532,0.4720151443125303,0.5577838900733491,-0.2066926956176758,-0.9760512113571167,-0.06784196943044662,-22.53591918945312,-43.55324554443359,16.2833251953125,2
1596231038.417939,82,0,103370.621650375,2.504510911459888,-1.362672151057562,1.346200758134479,0.02846542745828629,-1.702282071113586,0.008883655071258545,-0.2136328816413879,-0.09736591577529907,0.2100186347961426,2,0.6193366200402524,0.3056355568403601,0.4538002229824892,0.5630938558211178,-0.217907190322876,-0.9748842716217041,-0.04601811617612839,-21.27626800537109,-43.10118865966797,18.25537109375,2
1596231038.447954,83,0,103370.651749375,2.528913997178155,-1.400908470999648,1.360427261777626,0.6717010736465454,1.028460741043091,-0.8168105483055115,-0.2464457154273987,0.1739044189453125,0.1757663488388062,2,0.6227961923544711,0.307362959790888,0.4444597698981141,0.5657813749864975,-0.2058152258396149,-0.9779539108276367,-0.03530582785606384,-20.87567138671875,-43.20597076416016,18.85601806640625,2
1596231038.478069,84,0,103370.681848375,2.605079810848438,-1.430494568420347,1.387914755385071,0.4230566918849945,1.340079069137573,-0.5844049453735352,0.01646256446838379,-0.09329569339752197,0.02828997373580933,2,0.6140775496991759,0.3319526699706281,0.4484028334148543,0.5582574115771157,-0.1800781488418579,-0.9833236932754517,-0.02543237619102001,-20.22123718261719,-43.29219055175781,19.32589721679688,2
1596231038.508115,85,0,103370.711946375,2.645117431035172,-1.459122618097487,1.39693623984505,0.2082259207963943,-0.4084778130054474,-0.1885771304368973,-0.01219063997268677,-0.05524998903274536,-0.1442707777023315,2,0.6125891148618632,0.3392574935707076,0.4480904404110327,0.5557463161603493,-0.1719084531068802,-0.9849243760108948,-0.01927785947918892,-20.12822723388672,-43.35066986083984,19.35452270507812,2
1596231038.538071,86,0,103370.742045375,2.694078559434285,-1.5185284156128,1.409176839795389,0.470497339963913,-0.04982235282659531,-0.4338966012001038,0.451342910528183,-0.02536153793334961,0.1616179943084717,2,0.6156435070020621,0.3417302626845312,0.4399077359977229,0.5573910834275676,-0.160697877407074,-0.9869679808616638,-0.00840699952095747,-19.5072021484375,-43.30846405029297,19.56619262695312,2
1596231038.568233,87,0,103370.772144375,2.754454302507423,-1.576671211542066,1.413867693508321,0.1274867206811905,-0.1760066598653793,0.1543868780136108,-0.08484023809432983,-0.1905769109725952,-0.1757020950317383,2,0.6172463272233509,0.3456386129112838,0.4374551832116919,0.5551342431268842,-0.1562835574150085,-0.9877119660377502,0.0009181583882309496,-19.22048950195312,-43.294677734375,20.22805786132812,2
1596231038.598608,88,0,103370.802243375,2.784931936718863,-1.622994031942807,1.41043625321194,0.1640751957893372,-0.4347799122333527,-0.2033234089612961,-0.3710825741291046,0.1325887441635132,0.1225993633270264,2,0.6227047081744105,0.3411806889589365,0.4324945807441158,0.555682529742892,-0.1594565212726593,-0.9871698617935181,0.008330832235515118,-19.19464874267578,-43.04706573486328,20.57009887695312,2
1596231038.62852,89,0,103370.832341375,2.817715459838323,-1.653118253189676,1.424819465370938,0.169247031211853,0.4087468683719635,-0.5302813053131104,0.1008004248142242,0.009401082992553711,0.1634597778320312,2,0.6208069678635981,0.3472452136965451,0.4284246141294591,0.5572001661808654,-0.144967794418335,-0.9893642663955688,0.01196105964481831,-18.59421539306641,-43.25975036621094,20.84405517578125,2
1596231038.658639,90,0,103370.862440375,2.859155209799674,-1.688133192004662,1.432170215418293,0.09974364936351776,-0.1804348081350327,0.007736193016171455,0.3825698494911194,-0.1108953952789307,-0.1298155784606934,2,0.6195642886058366,0.3524605855949159,0.4271931388728014,0.5562532437688713,-0.1372325420379639,-0.9904067516326904,0.01617674343287945,-18.32726287841797,-43.44926452636719,20.82855224609375,2
1596231038.688701,91,0,103370.892539375,2.866786366471288,-1.709449954228789,1.425394111410008,0.04386787116527557,-0.5998352766036987,0.3371260762214661,0.2103656828403473,0.06109035015106201,0.03463315963745117,2,0.6241841150892885,0.3469968827356834,0.424406839875857,0.5566562742143178,-0.143500030040741,-0.9894477128982544,0.02002529241144657,-18.16989135742188,-43.097900390625,21.42333984375,2
1596231038.718888,92,0,103370.922638375,2.873769245786354,-1.729580912598325,1.419111252079214,0.06733904033899307,-0.2943249940872192,0.07051742821931839,0.1257565021514893,0.04655206203460693,0.04594075679779053,2,0.6285688223527989,0.3418296704543764,0.4216167793341745,0.5570397269656249,-0.1492049098014832,-0.9885178804397583,0.02389257587492466,-18.29315948486328,-43.09416198730469,21.49725341796875,2
1596231038.748878,93,0,103370.952736375,2.868087614455683,-1.734648070158638,1.412830702275418,-0.02630821987986565,-0.392261266708374,0.4030589163303375,0.145937442779541,0.0008466243743896484,0.03134620189666748,2,0.6319318989974059,0.336886186817055,0.4199927308063439,0.5574729296531762,-0.1552037447690964,-0.987549364566803,0.02566045522689819,-18.33696746826172,-43.01815795898438,21.7034912109375,2
1596231038.779074,94,0,103370.982835625,2.852711145221589,-1.732882036867982,1.39937985410371,0.03668626397848129,-0.5110602378845215,0.3342642486095428,-0.1784641146659851,0.0895688533782959,-0.06512081623077393,2,0.6369367167749913,0.3287481809737686,0.4196033478940013,0.5569285320583703,-0.1683430671691895,-0.9853441119194031,0.02752749621868134,-18.53948974609375,-42.84326171875,21.88491821289062,2
1596231038.809055,95,0,103371.012934625,2.856968588774116,-1.743155618634062,1.396398874430411,-0.02230997383594513,0.1574341952800751,0.08043938875198364,-0.08782908320426941,-0.1261608600616455,0.02194118499755859,2,0.6390109728392279,0.3264116576991165,0.4182491973707471,0.5569453977708736,-0.1709447056055069,-0.9848312735557556,0.02975918725132942,-18.39891815185547,-42.69355773925781,22.14791870117188,2
1596231038.839241,96,0,103371.043032625,2.832780198344908,-1.712684789839482,1.38570719843899,-0.08756959438323975,0.2379020005464554,0.522693932056427,-0.01991423964500427,0.04934573173522949,0.1130838394165039,2,0.6387118270221004,0.3241290663897587,0.423924324044246,0.5543246822520054,-0.1821854710578918,-0.9829198718070984,0.02602489851415157,-18.77125549316406,-42.63162231445312,22.02923583984375,2
1596231038.869299,97,0,103371.073131625,2.814500472785203,-1.688852647774381,1.377637964170654,-0.07430646568536758,0.1496019661426544,-0.007429485209286213,-0.08504369854927063,0.08865553140640259,0.01301562786102295,2,0.6381712144585241,0.3225558054988894,0.4285192743702532,0.5523283391372946,-0.1906239092350006,-0.9814028739929199,0.02260949276387691,-19.49666595458984,-42.46284484863281,21.62506103515625,2
1596231038.89962,98,0,103371.103230625,2.818328978371682,-1.68505388579181,1.37602013290443,-0.02754488587379456,0.2548673748970032,0.2825734317302704,0.1327967345714569,-0.105843722820282,0.02220273017883301,2,0.6370471297606897,0.3243517101622237,0.4311984492783824,0.5504860389933933,-0.1922852993011475,-0.9810910224914551,0.02206615544855595,-19.62934875488281,-42.62093353271484,21.73739624023438,2
1596231038.929511,99,0,103371.133329625,2.778161170803806,-1.641208679692152,1.364637948088485,-0.2418367862701416,0.01696890220046043,0.4026066660881042,0.05247905850410461,0.1460541486740112,0.1112877130508423,2,0.6361181730162073,0.3202413118412215,0.437057813380999,0.5493449287163967,-0.2041949480772018,-0.9788244962692261,0.01440165564417839,-20.36517333984375,-42.36441040039062,21.33157348632812,2
1596231038.959639,100,0,103371.163427625,2.747548313467456,-1.612400489218548,1.35824860114223,-0.2622356414794922,0.04850207269191742,0.08537789434194565,0.1424731314182281,-0.06836611032485962,-0.01024949550628662,2,0.6357918720346654,0.3164738191629101,0.4395016739168742,0.5499559893151643,-0.2107698321342468,-0.9774966239929199,0.008773965761065483,-20.70099639892578,-42.31967926025391,21.33111572265625,2
1596231038.98964,101,0,103371.193526625,2.712487880361713,-1.577898911862393,1.349511361084179,-0.2364882230758667,-0.149326279759407,0.5649918913841248,0.1282623112201691,-0.03714549541473389,-0.04172253608703613,2,0.6351189511635997,0.3120951232495159,0.4431896027044551,0.550276131358169,-0.2194792330265045,-0.9756162166595459,0.001558896154165268,-21.02212524414062,-42.65647888183594,20.75579833984375,2
1596231039.019845,102,0,103371.223625625,2.662057026271749,-1.51232664405235,1.336935863894937,-0.3530066311359406,0.449799656867981,0.03680755570530891,-0.1426272690296173,0.2376575469970703,0.09695422649383545,2,0.630129259514278,0.3101068314385958,0.4535810201489848,0.5486667114012961,-0.2313387542963028,-0.9727790355682373,-0.01354173850268126,-21.82868194580078,-42.53667449951172,19.87005615234375,2
1596231039.049869,103,0,103371.253724625,2.637406106499585,-1.493561554652897,1.340535245353714,-0.2870492041110992,-0.2560964226722717,-0.07805061340332031,-0.2028471529483795,-0.1323989033699036,-0.02343261241912842,2,0.6292075303465461,0.3086954584731288,0.4516798378227314,0.5520784307041202,-0.2275525033473969,-0.9736068248748779,-0.01760999485850334,-21.75019836425781,-42.54827117919922,19.91494750976562,2
1596231039.080096,104,0,103371.283822625,2.605757419584742,-1.460283461629721,1.337252099061802,-0.1777244210243225,0.3827400505542755,0.2437756508588791,0.06603804230690002,0.007903695106506348,0.02165412902832031,2,0.6269580791350036,0.3068578162766679,0.454333854906124,0.5534823706759811,-0.2300157845020294,-0.9728522896766663,-0.02552369609475136,-21.83728790283203,-42.50808715820312,19.656982421875,2
1596231039.110812,105,0,103371.313921625,2.578327305211713,-1.420841539329658,1.326436119363074,-0.3226484656333923,0.3470192551612854,0.3384959697723389,-0.09448999166488647,-0.03158748149871826,0.08152389526367188,2,0.623373057003221,0.3055064519388513,0.4622624526079921,0.5517113555771418,-0.2392211556434631,-0.970292329788208,-0.03614367917180061,-22.03015899658203,-42.78046417236328,19.16903686523438,2
1596231039.140223,106,0,103371.344020625,2.538704627260095,-1.377297118249998,1.319893494023258,-0.5601462125778198,0.06838081032037735,0.2018722295761108,0.07358497381210327,0.03256732225418091,0.03864145278930664,2,0.6199578269034354,0.3029538241573657,0.4668042433761244,0.5531411745807149,-0.2436454147100449,-0.9686886668205261,-0.04774254560470581,-22.64323425292969,-42.79007720947266,18.42514038085938,2
1596231039.170269,107,0,103371.374118625,2.515831571313683,-1.354510663403089,1.311705526374088,-0.1413800865411758,-0.009873314760625362,0.2764905691146851,0.0770287811756134,0.122377336025238,-0.08124715089797974,2,0.6188111138690623,0.2993023516742636,0.4700010429614251,0.5537056994837184,-0.2502329051494598,-0.9666233062744141,-0.05498181656002998,-22.79181671142578,-42.80077362060547,18.10995483398438,2
1596231039.200483,108,0,103371.404217625,2.504299255679375,-1.33671475254912,1.30349584088797,-0.1141237020492554,0.4588201940059662,0.1037390008568764,-0.1438164710998535,0.0003693103790283203,-0.006578981876373291,2,0.6170166676820253,0.2977551065503622,0.4747967371628031,0.5524495193290773,-0.2569256722927094,-0.9644874334335327,-0.06126465648412704,-23.24176788330078,-42.66197967529297,17.83004760742188,2
1596231039.23049,109,0,103371.434316625,2.482617995848963,-1.299734027981164,1.306100798476927,-0.2164819240570068,0.5195212960243225,-0.2795556783676147,-0.06944620609283447,0.04329991340637207,0.008079290390014648,2,0.6112486660992984,0.3022426177640832,0.4793688180408232,0.5524763199352634,-0.2520633339881897,-0.9651721715927124,-0.07004893571138382,-23.55294036865234,-42.74712371826172,17.45907592773438,2
1596231039.262915,110,0,103371.464415625,2.458721123153362,-1.264443771081123,1.309961495702581,-0.1025015190243721,0.2799639701843262,-0.05908370763063431,0.110488623380661,0.05620318651199341,-0.03149712085723877,2,0.6061394614099652,0.3061170429899432,0.4823122448490363,0.5534097917165272,-0.2458806335926056,-0.9661750197410583,-0.07777462154626846,-23.51144409179688,-42.95746612548828,16.84771728515625,2
1596231039.290734,111,0,103371.494513625,2.446091883182798,-1.245912796040759,1.310494434308166,-0.1190756857395172,0.1644186973571777,-0.07326474040746689,-0.0198671817779541,-0.02710747718811035,-0.08133417367935181,2,0.6035673839832358,0.307619803206302,0.4842552848057068,0.5536906982718319,-0.2439089417457581,-0.9663123488426208,-0.08215294033288956,-23.38593292236328,-42.75367736816406,16.60382080078125,2
1596231039.320877,112,0,103371.524612625,2.423948309006538,-1.223272258050468,1.310871467979992,-0.2148204892873764,-0.05271258950233459,-0.04391756653785706,-0.004936397075653076,-0.01666367053985596,0.01841610670089722,2,0.6014664863661184,0.307365112708613,0.4848170023043661,0.5556233329549971,-0.2416439056396484,-0.9664092659950256,-0.0875295102596283,-23.60585021972656,-43.09262084960938,16.27426147460938,2
1596231039.350874,113,0,103371.554711625,2.401041651607321,-1.202531216133635,1.307694991452326,-0.221850648522377,-0.009338092058897018,0.0763346403837204,0.007853031158447266,0.01891100406646729,0.01220810413360596,2,0.600087394025127,0.3050927387168189,0.4856709295592272,0.5576176883103873,-0.2426397949457169,-0.9655880331993103,-0.09362708032131195,-23.57717132568359,-43.22289276123047,16.08984375,2
1596231039.381051,114,0,103371.584810625,2.385075674076452,-1.182732070806145,1.304288310026078,-0.1321669071912766,0.2790057063102722,0.02825592085719109,-0.0451885461807251,-0.003004372119903564,-0.04434692859649658,2,0.5978320264641152,0.3045794537600693,0.4882216252162633,0.5580931254216656,-0.243781641125679,-0.96469646692276,-0.09965644776821136,-23.70506286621094,-43.29029083251953,15.73043823242188,2
1596231039.411094,115,0,103371.614908625,2.371943056166322,-1.161355456049347,1.30154497149984,-0.1285605430603027,0.274455189704895,0.05037810653448105,0.004738509654998779,0.01531773805618286,0.002172350883483887,2,0.5946864881770707,0.3056126853272272,0.4917989990530923,0.557747906710407,-0.2440227717161179,-0.9639703035354614,-0.1058977320790291,-23.8323974609375,-43.69114685058594,15.69857788085938,2
1596231039.4412,116,0,103371.645007625,2.363347889314829,-1.146252542778774,1.298354589598157,-0.1151135936379433,0.2192746549844742,0.05688523501157761,0.08132281899452209,0.007189154624938965,0.01140701770782471,2,0.5923613049548536,0.3060872517898613,0.4948960356627238,0.5572224210349521,-0.2451971620321274,-0.9631167650222778,-0.1108373552560806,-23.82244110107422,-43.39112854003906,15.111572265625,2
1596231039.471251,117,0,103371.675106625,2.357021536572095,-1.135241364550666,1.295101531553946,-0.09630671143531799,0.01112735457718372,0.1165749877691269,0.05017280578613281,0.01883882284164429,-0.03794372081756592,2,0.5906726462660417,0.3060718734855922,0.4974217193734055,0.5567743020258502,-0.2468008995056152,-0.9622362852096558,-0.1148516684770584,-24.01111602783203,-43.28296661376953,14.92904663085938,2
1596231039.501573,118,0,103371.705204625,2.353392148312517,-1.136761037459089,1.292171979622888,-0.02643364109098911,-0.2464743256568909,0.002114957431331277,-0.01195412874221802,0.001729965209960938,-0.04260081052780151,2,0.5916645848259245,0.3034835492697035,0.4968897465518103,0.557612359623892,-0.2495317757129669,-0.9614347219467163,-0.115661509335041,-24.10343170166016,-43.29170989990234,14.689697265625,2
1596231039.531467,119,0,103371.735303625,2.347418277784905,-1.135667677936903,1.292920359560039,-0.0336722731590271,-0.02154934592545033,-0.04851844161748886,-0.01831337809562683,0.0423436164855957,-0.01724112033843994,2,0.5922832477272185,0.3022996000121704,0.4953086089250748,0.5590037133704311,-0.2487527877092361,-0.9616402387619019,-0.1156310141086578,-24.00534057617188,-43.18215179443359,15.0050048828125,2
1596231039.561999,120,0,103371.765402625,2.351249624077982,-1.139841437096465,1.293239193847326,0.1309224665164948,-0.1259399950504303,0.04697490856051445,-0.01849034428596497,0.01698088645935059,-0.03766626119613647,2,0.5927310678998112,0.3023873136333338,0.4950414981903767,0.5587180835227989,-0.2489544302225113,-0.9617276787757874,-0.1144635900855064,-24.09854125976562,-43.45503234863281,14.90341186523438,2
1596231039.594329,121,0,103371.795501625,2.354263315651301,-1.150205563762001,1.292296030135428,-0.01480648294091225,-0.2699078917503357,-0.007191595155745745,-0.02245864272117615,0.008097708225250244,0.06587576866149902,2,0.5948579869281767,0.3000337060858875,0.4931055257091154,0.5594379387778823,-0.2509550452232361,-0.9614688158035278,-0.1122475042939186,-23.93903350830078,-43.16514587402344,15.23382568359375,2
1596231039.621772,122,0,103371.825599625,2.352304044172127,-1.153382914399125,1.293103202776828,-0.008246144279837608,-0.04434242472052574,-0.03878325968980789,0.03841578960418701,0.02786904573440552,0.00743556022644043,2,0.5959148787825852,0.2988612069762104,0.4913554349914772,0.5604795800654586,-0.2506008148193359,-0.9616904258728027,-0.111134871840477,-23.82558441162109,-43.12990570068359,15.32122802734375,2
1596231039.651865,123,0,103371.855698625,2.336866625173994,-1.133974739566009,1.289311677606329,-0.3536537289619446,0.4098981320858002,0.1520612835884094,0.02181354165077209,-0.05877858400344849,0.0582045316696167,2,0.5935133377759241,0.2982991441982166,0.4940004251572604,0.5610019502515756,-0.2516988813877106,-0.9606440663337708,-0.1175190731883049,-23.90383911132812,-43.29460906982422,15.18637084960938,2
