loggingTime,loggingSample,identifierForVendor,motionTimestamp_sinceReboot,motionYaw,motionRoll,motionPitch,motionRotationRateX,motionRotationRateY,motionRotationRateZ,motionUserAccelerationX,motionUserAccelerationY,motionUserAccelerationZ,motionAttitudeReferenceFrame,motionQuaternionX,motionQuaternionY,motionQuaternionZ,motionQuaternionW,motionGravityX,motionGravityY,motionGravityZ,motionMagneticFieldX,motionMagneticFieldY,motionMagneticFieldZ,motionMagneticFieldCalibrationAccuracy
1596230829.486222,1,0,103161.6694975417,-1.171239811525556,0.8160721377113964,1.257405066675307,-0.02118679881095886,0.2653709053993225,0.1725969165563583,-0.04367133975028992,0.02795648574829102,-0.03920561075210571,2,0.6272506053238933,-0.03090740301277756,-0.2158554946288837,0.7476680683683095,0.2245740294456482,-0.9512935876846313,-0.2112028151750565,-4.14080810546875,-49.74295806884766,8.55535888671875,2
1596230829.51786,2,0,103161.6995975417,-1.166023867610208,0.8170798507830118,1.261985724669573,0.05973321199417114,0.1767535954713821,0.06830236315727234,0.07798859477043152,0.02658581733703613,-0.00370323657989502,2,0.628559624268383,-0.03027689595119715,-0.2122933836507947,0.7476144876427508,0.2216072082519531,-0.9526957273483276,-0.20799221098423,-4.4310302734375,-49.98706817626953,8.619964599609375,2
1596230829.537154,3,0,103161.7296965417,-1.159901229781661,0.8145595137462169,1.264789098004235,0.04067875444889069,0.05309849232435226,0.09694460034370422,-0.03105047345161438,-0.01596593856811523,0.006661653518676758,2,0.6290734131879178,-0.03013890216315485,-0.2100044403993565,0.7478343374182075,0.2191386073827744,-0.953544020652771,-0.2067165821790695,-4.684829711914062,-49.81301879882812,8.694366455078125,2
1596230829.567583,4,0,103161.7597955417,-1.166901018076029,0.8227191020601951,1.265726723652914,0.0460023358464241,0.07924548536539078,-0.1186890453100204,-0.05276420712471008,0.01596599817276001,0.006698131561279297,2,0.6300543814787755,-0.02957547253768164,-0.2097866027816291,0.7470918390254552,0.2201627492904663,-0.9538260698318481,-0.2043135315179825,-4.501426696777344,-49.87702941894531,8.5181884765625,2
1596230829.597501,5,0,103161.789894875,-1.176683703076563,0.8387316779645415,1.262554647252144,-0.01756758615374565,0.2933612167835236,-0.1133225113153458,0.09414887428283691,-0.005970001220703125,0.004170000553131104,2,0.6308303881561592,-0.02571682104578529,-0.2092967737528685,0.7467170341079044,0.2256551533937454,-0.9528684616088867,-0.2027833312749863,-4.353172302246094,-49.74416351318359,8.81976318359375,2
1596230829.63897,6,0,103161.819993875,-1.176660424305791,0.8404174640883235,1.261040683137576,-0.00206146202981472,-0.3999777436256409,0.1280641108751297,0.1030589938163757,0.03230547904968262,-0.1125196814537048,2,0.6306437339138771,-0.02461884397035632,-0.2091899512484272,0.7469415806916596,0.2270709872245789,-0.9524080753326416,-0.2033647894859314,-4.311790466308594,-49.91288757324219,8.779693603515625,2
1596230829.657639,7,0,103161.850092875,-1.173827455082078,0.8243781526824493,1.280368869752348,0.5261726975440979,-0.1643415540456772,0.5457044839859009,-0.01746749877929688,0.02811813354492188,0.005618274211883545,2,0.6336502237617617,-0.03557708044141467,-0.2076780997425808,0.7443731252533952,0.2102252990007401,-0.9581215381622314,-0.1944433301687241,-4.729660034179688,-49.85457611083984,9.198638916015625,2
1596230829.702413,8,0,103161.880191875,-1.177534611456183,0.8253338954112265,1.288814306460139,0.04551408439874649,0.01514164824038744,-0.09682097285985947,-0.1682673394680023,-0.01693451404571533,0.06473833322525024,2,0.6356956094682794,-0.03895993408253498,-0.2063400372134482,0.7428302208510911,0.2044576853513718,-0.9605057835578918,-0.1887464374303818,-5.428871154785156,-49.55336761474609,9.798797607421875,2
1596230829.717873,9,0,103161.910290875,-1.196552305345072,0.8493542798745627,1.292372628572426,0.3567349016666412,0.2948775291442871,0.08909603208303452,-0.004551142454147339,0.028847336769104,-0.03323656320571899,2,0.6386352288190937,-0.03719584455244176,-0.2047158325115956,0.7408459984528498,0.206364706158638,-0.9614898562431335,-0.1815230250358582,-5.399398803710938,-49.78777313232422,9.913238525390625,2
1596230829.766844,10,0,103161.940389875,-1.213927015240408,0.875936459921313,1.301946810863406,0.2512489259243011,0.2641538381576538,0.1598190665245056,0.05870741605758667,0.02120125293731689,-0.006911933422088623,2,0.6431761916469307,-0.03589415488715975,-0.1998194924013138,0.7383143510686073,0.2040359377861023,-0.9640771150588989,-0.1700719892978668,-5.431320190429688,-49.60455322265625,10.35577392578125,2
1596230829.777893,11,0,103161.970488875,-1.234079792127928,0.9010647762443706,1.310390458160199,0.4594734311103821,-0.02373129688203335,0.08696712553501129,0.08829262852668762,-0.01058709621429443,-0.1048473715782166,2,0.6471505577256986,-0.03577730971511595,-0.19662939270848,0.7356988299529001,0.2018549889326096,-0.9662855863571167,-0.1598322838544846,-5.559906005859375,-49.56990814208984,10.88613891601562,2
1596230829.825241,12,0,103162.000587875,-1.277702443723675,0.9362189301048602,1.324791902776312,0.5745904445648193,-0.299846887588501,0.2214800864458084,0.01614949107170105,0.05932366847991943,-0.07365876436233521,2,0.6527469577933752,-0.04164939060569856,-0.1968290182152677,0.7303730622843907,0.1961199045181274,-0.969893217086792,-0.1443734765052795,-6.011497497558594,-49.25823211669922,11.55908203125,2
1596230829.838155,13,0,103162.030686875,-1.311917111338973,0.9633063175990756,1.338218791351686,0.445715993642807,-0.0777401477098465,0.1315295994281769,-0.1259167790412903,0.0249519944190979,-0.005590379238128662,2,0.6572500934682336,-0.04733604333180499,-0.1962662753034435,0.7261274002114541,0.1892480552196503,-0.9730755686759949,-0.1315632313489914,-6.061538696289062,-49.14762115478516,11.9779052734375,2
1596230829.869868,14,0,103162.060785875,-1.357598227111059,1.009049912062003,1.345857294127722,0.3939414620399475,0.01760325953364372,-0.04552897438406944,-0.03938740491867065,0.005055785179138184,-0.05587375164031982,2,0.6620100511532457,-0.04835618028623925,-0.1953098405576574,0.7219821134652691,0.1887695640325546,-0.9748076796531677,-0.1188087463378906,-6.429672241210938,-49.01263427734375,12.88134765625,2
1596230829.900229,15,0,103162.090884875,-1.40452982725169,1.054976362281456,1.35343017363846,0.4833320081233978,0.002193422988057137,0.1527769267559052,-0.01402965188026428,0.01151561737060547,0.005463361740112305,2,0.6665722973723403,-0.04995061403100892,-0.1945136839296943,0.7178791370208935,0.18759785592556,-0.9764688611030579,-0.1063726171851158,-6.297698974609375,-49.04466247558594,13.36956787109375,2
1596230829.942347,16,0,103162.120983875,-1.461789021877566,1.109930185313376,1.363189494053243,0.4850354194641113,-0.1033097729086876,-0.09476166963577271,-0.1866635978221893,0.02237582206726074,-0.004089653491973877,2,0.6718491962437712,-0.05277991118728609,-0.1934080650645112,0.7130401266425498,0.1846137195825577,-0.9785270094871521,-0.09166587889194489,-6.303497314453125,-48.56769561767578,14.30023193359375,2
1596230829.958682,17,0,103162.151082875,-1.533268249783582,1.174447664110037,1.362568111667443,0.4632408022880554,-0.1118921265006065,-0.2121360749006271,-0.0167165994644165,-0.03495919704437256,-0.05058127641677856,2,0.6761722847304712,-0.0537353592967886,-0.1972636282038833,0.7078067847801424,0.190699890255928,-0.9783987402915955,-0.0798071026802063,-6.28314208984375,-48.49745178222656,14.62472534179688,2
1596230830.002368,18,0,103162.181181875,-1.614505647453949,1.256387242867454,1.364777614272025,0.5584942698478699,0.2738536298274994,-0.1295261979103088,-0.07759717106819153,0.07608169317245483,0.06471151113510132,2,0.682301836114833,-0.05322618395303655,-0.1973156284068143,0.7019242317323782,0.1945361346006393,-0.9788531064987183,-0.06326235830783844,-5.834175109863281,-48.25440216064453,15.369873046875,2
1596230830.018746,19,0,103162.211280875,-1.680330434318354,1.324832138127863,1.361711409088393,0.2829804420471191,-0.01302172057330608,-0.2924039959907532,-0.08080902695655823,-0.05859208106994629,0.08462071418762207,2,0.6871365375103353,-0.05072805517605228,-0.1979604135459023,0.6971954752113008,0.2013169229030609,-0.9782212376594543,-0.05054008588194847,-5.805305480957031,-48.16561126708984,16.03427124023438,2
1596230830.066555,20,0,103162.241379875,-1.727589803324098,1.371786954579489,1.356053177530709,0.3220906555652618,0.05167229101061821,-0.21097731590271,-0.06286656856536865,0.03410381078720093,0.01055735349655151,2,0.6903395140439699,-0.04865195404111128,-0.2001724229632237,0.6935381662927047,0.2088898867368698,-0.9770311713218689,-0.04212868586182594,-5.428794860839844,-48.19050598144531,16.70062255859375,2
1596230830.079148,21,0,103162.271478875,-1.764220270617129,1.415830129101593,1.349660335357495,0.1741582304239273,0.60834801197052,-0.3586811423301697,-0.03368347883224487,0.0427280068397522,0.1565110683441162,2,0.6936534031397467,-0.04379481137686425,-0.1998135089894986,0.6906527946838885,0.21670863032341,-0.9756489396095276,-0.03385394066572189,-5.239547729492188,-48.14946746826172,16.70123291015625,2
1596230830.121673,22,0,103162.301577875,-1.790320964287843,1.451862281818089,1.340493950968964,0.09609039127826691,-0.09926657378673553,-0.215751051902771,0.08740946650505066,-0.05290353298187256,-0.05011850595474243,2,0.6964741885650869,-0.03716277002001162,-0.1994455465042583,0.6883051327613072,0.2266587018966675,-0.9735974073410034,-0.02708526700735092,-4.80194091796875,-47.99781036376953,16.93106079101562,2
1596230830.139279,23,0,103162.331676875,-1.814595264731777,1.468377378824581,1.336106187727247,0.2673564553260803,-0.249721959233284,-0.1589730232954025,0.1134583652019501,0.0475117564201355,0.006248891353607178,2,0.6975954801417629,-0.03838013289123293,-0.2035368048957463,0.6859010211432932,0.2313227653503418,-0.972586452960968,-0.02377502247691154,-4.333038330078125,-47.74005889892578,17.56234741210938,2
1596230830.186648,24,0,103162.361775875,-1.838677874779024,1.489544690717756,1.333248876257157,0.04416286945343018,-0.08856920152902603,-0.08254978805780411,-0.06898951530456543,0.001667976379394531,0.1446973085403442,2,0.6992614084531295,-0.03852247291171204,-0.2053695030561226,0.6836465852574046,0.2345424145460129,-0.9719180464744568,-0.01909900270402431,-3.98016357421875,-47.69754791259766,17.677001953125,2
1596230830.1994,25,0,103162.391874875,-1.838381652711554,1.483641715643794,1.326892691664138,-0.150456428527832,-0.1859347373247147,-0.2932000756263733,-0.07078716158866882,-0.05331999063491821,0.1110009551048279,2,0.698593608603202,-0.03816693623749151,-0.2095056834625178,0.6830940622807501,0.240575447678566,-0.9704026579856873,-0.02102050930261612,-3.800086975097656,-47.59656524658203,17.68417358398438,2
1596230830.246104,26,0,103162.421973875,-1.818425095537949,1.465107671417641,1.319222004579009,-0.1374511867761612,0.1859852373600006,-0.2172324657440186,-0.08692577481269836,0.03957623243331909,0.07920277118682861,2,0.6968924285806226,-0.03479903487560593,-0.2117730077599601,0.6843113053900126,0.2475392669439316,-0.9685217142105103,-0.02625994011759758,-3.537124633789062,-47.68169403076172,17.4151611328125,2
1596230830.259547,27,0,103162.452072875,-1.795709150125107,1.449181969696571,1.309857663717581,-0.3425357639789581,0.117969810962677,-0.3505969941616058,-0.02063387632369995,-0.0349736213684082,0.1632282733917236,2,0.6953491249299716,-0.02899647678913098,-0.2127389339410403,0.6858503499132635,0.2560811638832092,-0.9661482572555542,-0.03129759803414345,-2.959930419921875,-47.84654235839844,17.28256225585938,2
1596230830.308985,28,0,103162.482171875,-1.759632075935339,1.413460990301359,1.300175889076733,-0.2816625535488129,0.02310881204903126,-0.1908605992794037,-0.09765821695327759,0.0174105167388916,-0.03753888607025146,2,0.6916768579772309,-0.02529168984891852,-0.216041585263766,0.6886720989063375,0.2640265822410583,-0.9636052250862122,-0.04188691079616547,-2.795791625976562,-47.95755767822266,16.895263671875,2
1596230830.31978,29,0,103162.512270875,-1.739003130083666,1.402021466100429,1.288964095496623,-0.3893147706985474,0.4749854803085327,-0.5468626618385315,-0.1457007825374603,0.001051068305969238,0.1352646350860596,2,0.6901554537693588,-0.01808949673330137,-0.2167159279645033,0.6902118273604894,0.2741641998291016,-0.9605475068092346,-0.04671644046902657,-2.443771362304688,-48.17630004882812,16.38677978515625,2
1596230830.364066,30,0,103162.542369875,-1.69747563508838,1.375255670755494,1.268830717562939,-0.5631324052810669,0.4583298563957214,-0.5866901278495789,-0.1891725063323975,-0.1420900821685791,0.1091603636741638,2,0.6863484442213149,-0.005846868609588746,-0.2184318398904025,0.6936706058026472,0.2917290925979614,-0.9547537565231323,-0.05778325349092484,-2.008842468261719,-48.23929595947266,16.04443359375,2
1596230830.380028,31,0,103162.572468875,-1.637450070118539,1.335915481797976,1.242368877979981,-0.9835679531097412,0.6900221109390259,-1.021408915519714,-0.6215841770172119,-0.103179931640625,0.3980593681335449,2,0.6799691541775995,0.01041020419946592,-0.2199629949260947,0.6993923631448367,0.3136977255344391,-0.946550726890564,-0.07506715506315231,-1.160507202148438,-48.68972778320312,14.59295654296875,2
1596230830.426118,32,0,103162.602567875,-1.585639148726235,1.3160407991112,1.187613599666653,-1.055925250053406,1.146514534950256,-2.20417332649231,-0.66084885597229,-0.4570164680480957,0.4774113893508911,2,0.6717580348080338,0.04039031147657471,-0.2269707305274582,0.7039843093476076,0.361807107925415,-0.9274793863296509,-0.09421952813863754,-0.1337432861328125,-49.03755187988281,13.83462524414062,2
1596230830.440322,33,0,103162.632666875,-1.525697706754005,1.28924048940469,1.099493899076651,-2.775082349777222,0.8751437664031982,-2.854813098907471,-0.4598651230335236,-1.397446870803833,0.4499886035919189,2,0.6559200218311253,0.0817948121099687,-0.2439958241589458,0.7096085153079246,0.4361680746078491,-0.890977680683136,-0.1261570602655411,3.70025634765625,-49.05513763427734,11.67855834960938,2
1596230830.487861,34,0,103162.662765875,-1.361758892014018,1.226153714224173,0.9797598520910371,-4.252897262573242,4.29388427734375,-2.982353448867798,-1.607806921005249,-1.080720663070679,0.688791036605835,2,0.61861485077584,0.1522632319123864,-0.2439237192640473,0.7311858139854639,0.5244551301002502,-0.8303635716438293,-0.1882631480693817,6.020614624023438,-49.11252593994141,9.1585693359375,2
1596230830.500349,35,0,103162.692864875,-1.199141720035213,1.272997358165243,0.8327215532918557,-5.302329063415527,7.432323455810547,-4.172831058502197,-0.8019946813583374,-0.2793453335762024,0.9049317240715027,2,0.5752592217497701,0.2652582134274776,-0.2165614275483651,0.7428431468289248,0.6432483792304993,-0.7397653460502625,-0.197429820895195,11.09920501708984,-48.45787048339844,3.020477294921875,2
1596230830.545313,36,0,103162.722963875,-1.00327353069197,1.390904771643721,0.6655485108702663,-6.523581504821777,9.008220672607422,-4.129988193511963,0.02596068382263184,0.1359291672706604,1.085389614105225,2,0.5111039088354959,0.4103710334112248,-0.1654155008992534,0.7368894263598328,0.773885190486908,-0.6174906492233276,-0.1407368183135986,14.64944458007812,-47.47515106201172,0.2650146484375,2
1596230830.560646,37,0,103162.753062875,-0.775435562210556,1.536091787267383,0.5293956640713251,-6.802801609039307,8.532362937927246,-3.489123821258545,0.2882064580917358,0.5531387329101562,0.7968840599060059,2,0.427719791366301,0.5496197135109417,-0.09420468224876991,0.7114065526432158,0.8625925183296204,-0.5050117969512939,-0.02994790114462376,22.99147796630859,-43.32467651367188,-3.762359619140625,2
1596230830.60394,38,0,103162.783161875,-0.5560089698541747,1.632608124090299,0.4394774516970547,-5.786745071411133,4.069637298583984,-2.732973098754883,0.5720217227935791,0.5323601961135864,0.06582522392272949,2,0.3387149791775275,0.6428245361424846,-0.03072480734125041,0.6863705166980665,0.9032455086708069,-0.4254666268825531,0.05590244382619858,29.41775512695312,-38.43128204345703,-5.848114013671875,2
1596230830.620886,39,0,103162.81326025,-0.3841244338877017,1.624909734191541,0.3820835928517042,-4.561564445495605,0.5497130751609802,-1.620194554328918,0.5374600887298584,-0.005578994750976562,0.1492108106613159,2,0.2642402024935862,0.6747373559282703,0.006429420851994744,0.6891046055288123,0.9265314340591431,-0.372854620218277,0.05018676817417145,31.62283325195312,-36.08946228027344,-8.050628662109375,2
1596230830.663618,40,0,103162.84335925,-0.2370915222116384,1.550559513294287,0.3600320657827628,-4.720407009124756,-1.855023145675659,-0.09309723973274231,-0.09336435794830322,0.03118994832038879,0.3754596710205078,2,0.2084214832432915,0.6686489844134865,0.0413319757130482,0.7125730792416044,0.9356935620307922,-0.3523042500019073,-0.01893804222345352,32.97544860839844,-32.38159942626953,-14.09280395507812,2
1596230830.681085,41,0,103162.87345825,-0.0802664721922153,1.4250324130587,0.3657987680771806,-4.773319244384766,-2.526370763778687,1.291101098060608,-0.3333818912506104,0.4999729990959167,0.6357475519180298,2,0.16331448018061,0.6367960343942141,0.08895236209354779,0.7482689398797983,0.9239349961280823,-0.3576953411102295,-0.1356383860111237,32.06382751464844,-30.72364044189453,-18.0701904296875,2
1596230830.724307,42,0,103162.90355725,0.06289658375482926,1.305374350655747,0.3982977063482974,-3.292711496353149,-1.363484501838684,2.549906492233276,-0.2072467803955078,1.152124166488647,0.5237778425216675,2,0.138374582783872,0.5999674783857316,0.144576891236588,0.7745894965148985,0.8894454836845398,-0.3878498673439026,-0.2417829930782318,28.03007507324219,-28.75756072998047,-25.92825317382812,2
1596230830.741509,43,0,103162.93365625,0.168764005779289,1.260318986287803,0.4554728244637226,-1.915438413619995,1.024565100669861,2.82359504699707,-0.239720344543457,0.8895995616912842,0.2825026512145996,2,0.1333777730606617,0.5873898652736864,0.19890469446905,0.7730590200679888,0.8551151156425476,-0.4398869872093201,-0.2743670344352722,26.02099609375,-28.5322265625,-28.00173950195312,2
1596230830.786805,44,0,103162.96375625,0.2443889484333509,1.273698516604025,0.5236432404465209,-0.9469799399375916,2.151346921920776,2.803427457809448,-0.3499765396118164,0.2841655015945435,0.06536948680877686,2,0.1365353217393872,0.5954817137454828,0.247432863240295,0.7520215783694795,0.8280635476112366,-0.5000385046005249,-0.2535192668437958,24.14266204833984,-29.67871856689453,-28.70855712890625,2
1596230830.801378,45,0,103162.99385525,0.2796186256013828,1.31962370199959,0.5941853706376262,0.193962037563324,1.373262643814087,2.158075571060181,0.1589409708976746,0.003856003284454346,0.3711105585098267,2,0.1473627433404589,0.6126283915377699,0.2829717752177714,0.7231164494889901,0.8026043176651001,-0.5598339438438416,-0.2059413492679596,23.75342559814453,-30.35429382324219,-27.76348876953125,2
1596230830.843936,46,0,103163.02395425,0.2927499583361718,1.317229642506615,0.6560188764597148,-0.1574559062719345,-0.0804731473326683,2.420417547225952,0.631102979183197,-0.2068572044372559,0.6749535799026489,2,0.1675460914079082,0.6103564321582035,0.3042569155550321,0.7119133964517264,0.7670876979827881,-0.6099669337272644,-0.198786661028862,22.26325988769531,-32.59334564208984,-26.78546142578125,2
1596230830.86183,47,0,103163.05405325,0.3447072234669765,1.299160050114772,0.7387383765795917,-0.7048848867416382,1.341559767723083,3.389443874359131,-0.5300617814064026,0.1452144384384155,0.3440054655075073,2,0.1865031975002597,0.6050074330184348,0.3424947776727112,0.6941755877730039,0.7122100591659546,-0.6733556985855103,-0.1983651220798492,20.63362884521484,-33.644775390625,-26.8824462890625,2
1596230830.906603,48,0,103163.08415225,0.4018142586662283,1.348299449047013,0.8357764883789562,-0.3841796815395355,4.553629875183105,3.520781755447388,-1.323937177658081,0.6741816997528076,0.2951540350914001,2,0.1968223027789152,0.6223115061032661,0.3907247278423899,0.6490942808591914,0.6540709733963013,-0.7418174743652344,-0.147978737950325,18.52610015869141,-35.83478546142578,-26.45480346679688,2
1596230830.921869,49,0,103163.11425125,0.3831179349247038,1.453367713043909,0.9234587048953663,4.368184089660645,5.504525661468506,0.3967496752738953,1.786835908889771,0.3539174795150757,1.893524289131165,2,0.2136182478234592,0.6473330217942427,0.4179651689894358,0.600526643154411,0.598911464214325,-0.7976922392845154,-0.07065440714359283,17.92899322509766,-36.93180084228516,-25.17153930664062,2
1596230830.964985,50,0,103163.14435025,0.3816219446231959,1.640494126405939,0.8330804148477311,-2.748351573944092,-2.727611064910889,-2.758134841918945,3.305312633514404,0.7324047088623047,-2.082244873046875,2,0.144106399706908,0.7089807643213439,0.4088109854888164,0.5562851977916605,0.6709664463996887,-0.7400067448616028,0.04684075713157654,23.50873565673828,-37.60978698730469,-18.4490966796875,2
1596230830.981986,51,0,103163.17444925,0.3126246587485086,1.573029179299918,0.7963163908290547,4.489457130432129,-4.851792335510254,0.2263635843992233,-0.0355260968208313,0.1792023181915283,0.7068359851837158,2,0.1689328886222944,0.6871989846816842,0.3724758644170605,0.6004004446783655,0.6993423104286194,-0.7147848606109619,0.001561530865728855,24.76165008544922,-36.03376770019531,-20.1346435546875,2
1596230831.026586,52,0,103163.20454825,0.1828659443080727,1.525402419667939,0.8830242013766482,1.300435066223145,-1.728633522987366,4.974667549133301,-1.062071800231934,-1.043282747268677,1.457851886749268,2,0.2506088818907205,0.6502243628183308,0.3536648842994997,0.6239586848903061,0.6341631412506104,-0.7726622223854065,-0.02880693227052689,19.70941162109375,-38.90223693847656,-20.16656494140625,2
1596230831.042193,53,0,103163.23464725,0.2010332865077611,1.546426037165202,1.022115160963944,-0.3734508454799652,1.91360330581665,2.986693859100342,-1.704998016357422,-0.3088228106498718,-0.241191029548645,2,0.2871360639406916,0.6412473798441483,0.4025216974998651,0.5867969803232643,0.5214070677757263,-0.8532131314277649,-0.0127093568444252,12.6361083984375,-42.36116027832031,-19.80462646484375,2
1596230831.086567,54,0,103163.26474625,0.1585488455195069,1.664510769595274,1.033263243157474,0.786457359790802,3.568087577819824,-1.924862623214722,-0.3576615452766418,0.1333422660827637,-0.4110908508300781,2,0.2805747300134358,0.6672589256045716,0.4104626893710752,0.5545841823753608,0.5097715854644775,-0.8589743971824646,0.04791330546140671,12.50383758544922,-43.09828948974609,-18.68792724609375,2
1596230831.102934,55,0,103163.29484525,0.1867103029126025,1.728951893479985,0.951553650635598,-0.4945821166038513,2.216732025146484,-2.621262073516846,0.6774750351905823,-0.2492992877960205,-0.05418944358825684,2,0.2329431528526056,0.7010310584199928,0.4007144764929806,0.5419598403129522,0.573173999786377,-0.8143182396888733,0.09141411632299423,18.29365539550781,-41.75151062011719,-16.47799682617188,2
1596230831.144323,56,0,103163.32494425,0.1964797634777554,1.752519893189367,0.9299398245050871,0.1106692850589752,-0.1846816688776016,1.434075474739075,1.115944981575012,0.09406846761703491,-0.1631273031234741,2,0.2182421538345534,0.7116153938780245,0.3989749205867125,0.5355303039492988,0.5880368947982788,-0.8015839457511902,0.1080522164702415,20.26385498046875,-40.86724090576172,-15.97567749023438,2
1596230831.162507,57,0,103163.35504325,0.1507947747316565,1.76055887873531,1.009011467427061,0.7206435799598694,-1.457217216491699,3.278456687927246,0.1040111780166626,-0.0297081470489502,-0.05936670303344727,2,0.2561686611059774,0.6961449691600418,0.4135836322263111,0.5279282374459704,0.5231348276138306,-0.8463056683540344,0.1004804000258446,16.82754516601562,-42.52233123779297,-16.02236938476562,2
1596230831.206561,58,0,103163.38514225,0.09206364110482779,1.779848975229431,1.076498619389914,0.01587738655507565,-0.2637249231338501,1.043745279312134,-0.8246821165084839,-0.1741386651992798,0.2814915180206299,2,0.2916463246478959,0.6813007307506205,0.4227768478304131,0.5215662388986453,0.4640842974185944,-0.8803021311759949,0.09845653176307678,14.20359802246094,-43.54628753662109,-15.866455078125,2
1596230831.222845,59,0,103163.41524125,0.1114715901246545,1.774396559234723,1.070055579240774,-0.2544541954994202,0.7860901355743408,-1.138969540596008,-0.7075799703598022,-0.04294788837432861,0.1097712516784668,2,0.2843695467062158,0.6838630791113619,0.4249542569748441,0.5204603270214898,0.470159113407135,-0.8772271871566772,0.09706950187683105,12.98639678955078,-43.94036102294922,-16.15768432617188,2
1596230831.264697,60,0,103163.44534025,0.1356170646690004,1.778779838213793,1.039139163113175,-0.2418049573898315,0.8603114485740662,-0.7317724823951721,0.1067168712615967,-0.0008147954940795898,-0.001216530799865723,2,0.2663429518295745,0.6938314324829207,0.4217910654054846,0.5193761174282518,0.4960367977619171,-0.8619681596755981,0.1046812459826469,14.07192993164062,-43.50250244140625,-16.03958129882812,2
1596230831.283147,61,0,103163.47543925,0.1458951866956397,1.782440279764863,1.037084401689184,0.06265299022197723,-0.1654927432537079,0.440801590681076,0.3219987750053406,-0.1376453638076782,-0.1329805850982666,2,0.261408479818416,0.6964909426891241,0.4242661763813353,0.5162983442505503,0.4973806738853455,-0.8609246015548706,0.1068680509924889,15.45075225830078,-43.07648468017578,-15.898193359375,2
1596230831.324041,62,0,103163.50553825,0.137749059436199,1.772860672515694,1.05115630946763,-0.125269889831543,-0.7084997892379761,0.2839243412017822,-0.02412772178649902,-0.03109407424926758,0.07899534702301025,2,0.2702956097975635,0.6904844902807361,0.4254508367528629,0.5188089876579792,0.4864641427993774,-0.8679980039596558,0.0996570959687233,14.68276214599609,-43.42987823486328,-15.94744873046875,2
1596230831.343508,63,0,103163.53563725,0.1507972566746238,1.746157062690475,1.050475102811134,-0.2210002690553665,-0.3307198584079742,-0.2900591492652893,-0.02188372611999512,0.0484270453453064,-0.08753204345703125,2,0.271288230420333,0.6853981855501426,0.4250227033314904,0.5253452117817453,0.4895339906215668,-0.8676595091819763,0.08673595637083054,14.07427978515625,-43.33046722412109,-16.34268188476562,2
1596230831.384812,64,0,103163.56573625,0.1620751266808411,1.722523287547669,1.046115881624318,-0.1592247933149338,-0.7164347767829895,0.01905449293553829,0.07377111911773682,-0.06344294548034668,-0.04048562049865723,2,0.2711652746829287,0.6814150587725178,0.4234192020288856,0.531844687599546,0.4951807856559753,-0.8654840588569641,0.07571417838335037,14.30552673339844,-43.28954315185547,-16.57540893554688,2
1596230831.403351,65,0,103163.59583525,0.1750893208148091,1.682703165185985,1.050110652186749,-0.3321844339370728,-1.16038990020752,0.06364428251981735,-0.0284121036529541,-0.1315814852714539,0.008164882659912109,2,0.2763844313000561,0.6718549043927111,0.4227021162895884,0.5417984224847247,0.4943632781505585,-0.8674782514572144,0.05555473268032074,13.60768890380859,-43.28865051269531,-17.59072875976562,2
1596230831.446977,66,0,103163.62593425,0.1942578276357391,1.625265463688894,1.046246294407751,-0.2286824882030487,-1.38989245891571,-0.3574356138706207,-0.1567056775093079,-0.08519697189331055,0.06357598304748535,2,0.2808948002536476,0.6593413968788746,0.4188034134341988,0.5576474325753913,0.5000806450843811,-0.8655493855476379,0.02726593241095543,13.31285858154297,-43.16194915771484,-18.18658447265625,2
1596230831.463563,67,0,103163.65603325,0.1902090592087082,1.591628637937207,1.032733635751556,0.1486769616603851,-1.0781170129776,-0.4576672613620758,-0.2352417707443237,-0.03929585218429565,0.2347674369812012,2,0.2849010832021412,0.6512825700237699,0.4089205946175248,0.5722291333193673,0.5123618841171265,-0.8587031364440918,0.01067522633820772,12.8194580078125,-42.65632629394531,-18.9476318359375,2
1596230831.507404,68,0,103163.68613225,0.2048831730819154,1.557267930590033,1.019921541885021,-0.4156637489795685,-0.4501273632049561,-0.4473756849765778,-0.100709855556488,-0.05243211984634399,0.2661957740783691,2,0.2829926734939908,0.6452709919315578,0.4045647759559331,0.5829817506997672,0.523384690284729,-0.8520669341087341,-0.007080987561494112,12.89281463623047,-42.56517791748047,-19.26681518554688,2
1596230831.523845,69,0,103163.71623125,0.2181681402662975,1.531764842960392,1.005254770655758,-0.1874832659959793,-0.4792382419109344,-0.4682448506355286,0.04201215505599976,-0.06410676240921021,0.149127185344696,2,0.2790220813644868,0.641631806238074,0.400701177490718,0.5915181993826311,0.5354648232460022,-0.8442985415458679,-0.0209106057882309,13.10762786865234,-42.42172241210938,-20.034423828125,2
1596230831.565082,70,0,103163.74633025,0.2343483038340025,1.511843893480196,0.996541867915079,-0.5080220699310303,0.2663885056972504,-0.01264037285000086,0.3113176822662354,0.02976059913635254,0.4377327561378479,2,0.2749174501495673,0.6390758442076587,0.4002999731897583,0.5964580159859693,0.5422649383544922,-0.8395975232124329,-0.03200492262840271,13.36693572998047,-41.83888244628906,-20.61810302734375,2
1596230831.583958,71,0,103163.77642925,0.273782602599056,1.494248712288389,1.006209641824375,-0.8569339513778687,0.5627618432044983,0.826271116733551,0.4886758327484131,0.1408337354660034,0.7506930828094482,2,0.2691754646337847,0.6380325459102896,0.4122808808801482,0.5920164083268166,0.5334996581077576,-0.8448098301887512,-0.04091807827353477,13.58507537841797,-41.42048645019531,-21.04537963867188,2
1596230831.625751,72,0,103163.806528375,0.312840707277542,1.448926716242044,1.041160566595724,0.03577305749058723,-1.526029109954834,1.368727326393127,-0.05481410026550293,0.2959074378013611,0.3882967233657837,2,0.2783546158986457,0.625946836425235,0.4268138939015855,0.5903719870397784,0.5014716982841492,-0.8629911541938782,-0.06141853332519531,11.85370635986328,-41.75679779052734,-22.1458740234375,2
1596230831.644198,73,0,103163.836627375,0.2864545732998617,1.395090182284813,1.071244082298678,1.13351845741272,-3.729479551315308,0.17961286008358,-0.3934550285339355,0.5299416780471802,0.480852484703064,2,0.3083121819201569,0.602557352295063,0.4185538541709705,0.6055416504886714,0.4716566503047943,-0.8777971267700195,-0.08373647183179855,9.955947875976562,-42.19731903076172,-22.43606567382812,2
1596230831.68824,74,0,103163.866726375,0.1463087316399737,1.353771308888455,1.050286445963037,3.081259489059448,-6.895562171936035,-2.559374094009399,0.3214483261108398,0.3482747077941895,0.1543794870376587,2,0.3501486750452601,0.5690807189611498,0.3624795874718355,0.6497317584740587,0.4856561422348022,-0.8675656914710999,-0.1070860847830772,6.538581848144531,-43.36891937255859,-21.51583862304688,2
1596230831.70435,75,0,103163.896825375,-0.1000285310707227,1.337816195050753,0.9837096919916144,4.0496506690979,-7.611198425292969,-2.859081029891968,1.243839859962463,-0.01044106483459473,0.5559340715408325,2,0.3973529850399282,0.5274130629004667,0.2579267071021705,0.7052799716792635,0.5389718413352966,-0.8325580358505249,-0.1278921365737915,5.900520324707031,-44.72223663330078,-20.07241821289062,2
1596230831.745274,76,0,103163.926924375,-0.3660149994766233,1.318519048751216,0.9552100846938276,4.971168041229248,-8.26323413848877,-1.84935188293457,0.8907638192176819,-0.1994081735610962,0.7764241695404053,2,0.4562631967349183,0.4687823962066755,0.1490965650877851,0.7415099266560476,0.5591590404510498,-0.8164350986480713,-0.1441339254379272,4.659019470214844,-46.88832855224609,-14.95440673828125,2
1596230831.764504,77,0,103163.957023375,-0.5999039219823986,1.262182405062738,0.9196179154360499,3.072659730911255,-7.694692134857178,-3.069071292877197,-0.3617951273918152,-0.5602863430976868,0.6988095045089722,2,0.4985311153239628,0.3992683312801265,0.03636541470020169,0.7685889074866666,0.5774878263473511,-0.7953701019287109,-0.1841030567884445,4.424842834472656,-47.84922790527344,-11.94989013671875,2
1596230831.80707,78,0,103163.987122375,-0.7806930749128388,1.225510752182013,0.8462650489279222,2.722679615020752,-3.559378862380981,-3.513803243637085,-0.715553879737854,-0.1260716915130615,0.3336290121078491,2,0.5101847698321409,0.357136869174173,-0.06543643382714895,0.7796682096829159,0.6236658692359924,-0.7488101720809937,-0.2243295162916183,7.463737487792969,-48.30506896972656,-8.2227783203125,2
1596230831.824967,79,0,103164.017221375,-0.9277389854874438,1.268872798037542,0.7969482750743075,2.56477689743042,-1.286978721618652,-1.750729441642761,-0.7422950267791748,0.07128244638442993,-0.03642404079437256,2,0.5238993557324987,0.3487393236385106,-0.1264351064905465,0.7667621412836984,0.6672787666320801,-0.7152265906333923,-0.2078206986188889,10.10507202148438,-48.0975341796875,-6.4306640625,2
1596230831.868537,80,0,103164.047320375,-1.053500356922465,1.325889575754748,0.7811746489751683,2.859663963317871,-1.16361141204834,-0.9393108487129211,-0.4272817373275757,0.1287120580673218,-0.1391370892524719,2,0.5455045212305079,0.3410849345800978,-0.1638432717242964,0.7478241876614276,0.6888976097106934,-0.7041140198707581,-0.1721717715263367,13.14999389648438,-47.72945404052734,-2.36322021484375,2
1596230831.884975,81,0,103164.077419375,-1.178676648445158,1.357849292585224,0.7880225963048737,2.919530391693115,-2.687399625778198,0.2364429980516434,0.06174743175506592,-0.1851769089698792,0.05965018272399902,2,0.5706484636910066,0.3159687742843612,-0.1990116731423934,0.7313811393401668,0.6893185973167419,-0.7089601159095764,-0.1490481346845627,14.01465606689453,-47.72089385986328,-0.1015625,2
1596230831.925257,82,0,103164.107518375,-1.284505571507473,1.341545103118681,0.8367697534083789,2.445038318634033,-3.296340227127075,1.754407644271851,0.07460808753967285,-0.3753290772438049,0.2561083436012268,2,0.5950649567287485,0.2641683096425108,-0.2265264226167213,0.7244296305587496,0.6523385643959045,-0.7424831986427307,-0.152225598692894,13.52957916259766,-47.85451507568359,3.57958984375,2
1596230831.945206,83,0,103164.137617375,-1.363685353088605,1.297638594098022,0.9128279844740497,2.178187131881714,-3.362511396408081,2.11641526222229,-0.453410267829895,-0.08492362499237061,0.2353511452674866,2,0.6144867601078302,0.1998033506340125,-0.2439928431281055,0.7231542456846669,0.5888380408287048,-0.7912362217903137,-0.1649692803621292,11.96989440917969,-48.27771759033203,4.824432373046875,2
1596230831.984357,84,0,103164.167716375,-1.431923320750156,1.262775567140072,0.9910869491667988,1.756648540496826,-2.641121625900269,2.14868950843811,-0.6698783040046692,-0.2450140118598938,0.2229190468788147,2,0.6304044295295407,0.1398359951180921,-0.2543156407189487,0.7199718160851287,0.5219993591308594,-0.836621880531311,-0.1660722941160202,8.82525634765625,-49.14456176757812,7.2041015625,2
1596230832.005248,85,0,103164.197815375,-1.461593456212194,1.218091254744253,1.071913773698507,0.9593133926391602,-2.418992757797241,2.513210773468018,-0.7380791306495667,-0.5615444779396057,0.1095750331878662,2,0.6401923929428878,0.08670272168606201,-0.2531439215729264,0.7201071822864527,0.448992133140564,-0.8781177401542664,-0.1652726829051971,5.38726806640625,-49.27303314208984,8.808013916015625,2
1596230832.044635,86,0,103164.227914375,-1.462144685287572,1.18429579606413,1.127607237073744,0.5393584966659546,0.1196727752685547,0.7970966100692749,-0.3791677951812744,-0.3183966875076294,0.186646044254303,2,0.6450864350835607,0.0551485464910727,-0.2461974564312174,0.7212549502649437,0.3971896171569824,-0.9033886790275574,-0.1616442650556564,3.337966918945312,-49.49586486816406,9.532958984375,2
1596230832.065727,87,0,103164.258013375,-1.475373524522306,1.187262977737408,1.149002651467281,0.5427727699279785,-0.740295946598053,0.7068831324577332,-0.3237322568893433,-0.06406652927398682,-0.4617345333099365,2,0.6491673820881253,0.04453771616912386,-0.2430605437235089,0.7193882739652447,0.3796537816524506,-0.9123560786247253,-0.1531962007284164,2.232955932617188,-49.5296630859375,10.26239013671875,2
1596230832.105528,88,0,103164.288112375,-1.513679724870851,1.230622739425034,1.177993345529195,0.7627522349357605,0.9310066103935242,0.6290398836135864,-0.1609418392181396,-0.1439778804779053,-0.03827130794525146,2,0.6593484710836366,0.03744762559495174,-0.2330965805744413,0.7138088849196559,0.3608446419239044,-0.9238397479057312,-0.1277145445346832,1.378799438476562,-49.48922729492188,11.06161499023438,2
1596230832.125781,89,0,103164.318211375,-1.541048033650612,1.266098270596749,1.196390602494983,0.5345520377159119,-0.1747529059648514,0.2484434098005295,-0.3958607912063599,-0.008107006549835205,0.5706969499588013,2,0.6662936271509462,0.03455425263948339,-0.2249752119563026,0.7101019629452213,0.3488731980323792,-0.93072509765625,-0.1097176149487495,0.308258056640625,-49.3468017578125,12.280517578125,2
1596230832.162903,90,0,103164.348310375,-1.576597852629813,1.291769747372839,1.20018175475012,0.1359483748674393,0.1581971645355225,-0.09794371575117111,-0.03897202014923096,-0.2435700297355652,0.09123533964157104,2,0.67022190647061,0.03042568001366902,-0.2277130008171563,0.7057077420761964,0.3481797575950623,-0.9321049451828003,-0.09975374490022659,0.289459228515625,-49.44179534912109,12.67630004882812,2
1596230832.185939,91,0,103164.378409375,-1.574886150595927,1.31039017933463,1.206861936003389,0.1072324067354202,0.7138822078704834,0.4984200298786163,-0.07176563143730164,0.04818373918533325,0.03299987316131592,2,0.6730052484779662,0.0352101075789496,-0.218613417926926,0.7057139637940824,0.343952476978302,-0.9345036149024963,-0.09164837002754211,-0.1648941040039062,-49.20210266113281,13.00619506835938,2
1596230832.224048,92,0,103164.408508375,-1.58974487945911,1.336365402503132,1.21917190946846,0.3365150988101959,0.136636033654213,0.03937584161758423,-0.1598447561264038,0.005495548248291016,0.05047929286956787,2,0.6773273957406355,0.03499491632399737,-0.2109278662054565,0.7039264000170464,0.3350021243095398,-0.9388144612312317,-0.08000590652227402,-0.6715011596679688,-49.29560089111328,13.23507690429688,2
1596230832.246234,93,0,103164.438607375,-1.603268136432586,1.354540909282078,1.213774832118956,-0.1078778505325317,0.3438872396945953,-0.2751298844814301,0.161179393529892,-0.01759696006774902,0.3058466911315918,2,0.6789746072202767,0.03870885697294818,-0.2113449368724384,0.7020172427191053,0.3413442671298981,-0.936941921710968,-0.07499021291732788,-0.8565521240234375,-48.88478088378906,13.64480590820312,2
1596230832.283346,94,0,103164.468706375,-1.58299470424468,1.344060401215379,1.214749855987646,-0.1170566976070404,-0.05469164624810219,0.4827513992786407,0.2768200039863586,-0.007867813110351562,-0.0903821587562561,2,0.6775649173880732,0.04155426600432185,-0.2074409017635825,0.704377039480212,0.339649111032486,-0.9372822046279907,-0.07835805416107178,-0.870880126953125,-49.10294342041016,13.57083129882812,2
1596230832.306618,95,0,103164.498805375,-1.568291561354619,1.316412034134675,1.232082592543128,-0.0775335431098938,-0.8281993269920349,0.5094314217567444,0.01796120405197144,-0.02070015668869019,-0.01400655508041382,2,0.6762042345605899,0.0306527682101386,-0.2057466891136509,0.7067363681284862,0.3215804100036621,-0.9431828260421753,-0.0836164802312851,-1.549072265625,-49.21348571777344,13.44921875,2
1596230832.34553,96,0,103164.528904375,-1.546857125853657,1.275217780032487,1.236779111819749,-0.261299341917038,-0.4141430556774139,-0.03033164702355862,-0.1774327754974365,-0.02286696434020996,0.1619325876235962,2,0.6721480788554393,0.02163578573272221,-0.2104595398837224,0.7095459378201721,0.3136231303215027,-0.9447329640388489,-0.09549770504236221,-1.866195678710938,-49.11409759521484,13.18466186523438,2
1596230832.366587,97,0,103164.559003375,-1.52240767412768,1.247147523845973,1.233285441871428,-0.2620685696601868,-0.09549521654844284,0.03603257238864899,-0.09334903955459595,0.07848989963531494,0.03278213739395142,2,0.6685057594784223,0.02107934805865122,-0.2123475853371965,0.7124352451178395,0.3139465153217316,-0.9435818195343018,-0.1053114235401154,-1.731414794921875,-49.29518890380859,12.77078247070312,2
1596230832.404855,98,0,103164.589102375,-1.502317945055047,1.220751491610541,1.233963408106069,-0.1916850656270981,-0.502520740032196,0.1205628961324692,0.01669538021087646,-0.03386223316192627,-0.1917586922645569,2,0.6655831248831492,0.01812382766562542,-0.2137567172577345,0.7148275404199421,0.3104565441608429,-0.9438061118125916,-0.1133412644267082,-1.526435852050781,-49.33610534667969,12.34613037109375,2
1596230832.426664,99,0,103164.619201375,-1.485179672966863,1.190549507116075,1.234328146510576,-0.2018241882324219,-0.2447469830513,-0.00560323428362608,-0.03579461574554443,-0.0544162392616272,0.1656014919281006,2,0.6622429802844829,0.01287564348654524,-0.2175272761162128,0.7169031874323407,0.3065730035305023,-0.9439265727996826,-0.1225369051098824,-1.385551452636719,-49.32137298583984,12.080810546875,2
1596230832.463369,100,0,103164.649300375,-1.456324856134328,1.162202450413048,1.22927051982362,-0.4274243116378784,0.06438114494085312,0.02208942919969559,-0.03802049160003662,0.03950560092926025,0.1842923760414124,2,0.65823160303651,0.01396879571787826,-0.2181818900903496,0.7203697023340888,0.3073538243770599,-0.9422447085380554,-0.1330720633268356,-1.400169372558594,-49.52328491210938,11.66207885742188,2
1596230832.486835,101,0,103164.679399375,-1.430076076085431,1.133682760849835,1.228847472677437,-0.1343601047992706,-0.3473630845546722,0.1121614798903465,0.03829532861709595,0.01923555135726929,-0.2096453905105591,2,0.6548815260080514,0.01243692012851549,-0.2182077262047795,0.7234366709362064,0.3037950694561005,-0.9421029686927795,-0.1419510245323181,-1.526542663574219,-49.4935302734375,11.25665283203125,2
1596230832.523135,102,0,103164.709498375,-1.411597844426953,1.109021565075931,1.228694287861435,-0.2524053752422333,-0.2235139012336731,0.1047199591994286,0.009167850017547607,0.01800823211669922,0.06586915254592896,2,0.6520554171402704,0.009593026994123455,-0.2196211072947239,0.7256018567814243,0.300331711769104,-0.9420515894889832,-0.149463415145874,-1.685798645019531,-49.75635528564453,10.8189697265625,2
1596230832.547066,103,0,103164.739597375,-1.387868679380323,1.077785985801042,1.228588681092091,-0.2326828986406326,-0.2716744840145111,0.07833229005336761,-0.1513848006725311,-0.02311933040618896,0.003009200096130371,2,0.6485025587463207,0.005990372947022676,-0.2211856377060349,0.7283441704354165,0.2956050038337708,-0.9420161247253418,-0.1588170975446701,-1.774864196777344,-49.83153533935547,10.60476684570312,2
1596230832.583872,104,0,103164.769696375,-1.367997926413316,1.054272875208804,1.225373132235637,-0.1998702436685562,0.01065466646105051,-0.08375188708305359,-0.2022027373313904,0.06638836860656738,0.04709446430206299,2,0.6452647174792738,0.004923149607931665,-0.2225647579153573,0.7308036988542906,0.2944220900535583,-0.9409322738647461,-0.167218416929245,-1.925491333007812,-49.91377258300781,10.1339111328125,2
1596230832.607315,105,0,103164.799795625,-1.363136306698579,1.056270483755024,1.217399086221173,-0.2157735675573349,0.3331238627433777,-0.2427130043506622,0.1402741074562073,0.0144418478012085,0.03366440534591675,2,0.6440059895275889,0.00989412214713789,-0.2226653210533846,0.7318321250745747,0.3012772798538208,-0.9382023811340332,-0.1703167855739594,-1.756744384765625,-50.02192687988281,10.01437377929688,2
1596230832.644368,106,0,103164.829894625,-1.345843784777845,1.043537560678593,1.213019470480884,-0.1500399112701416,-0.2298547178506851,0.1996448189020157,0.1076808273792267,-0.03957879543304443,-0.1102840900421143,2,0.6416755478651541,0.01224915947302468,-0.2218006930549005,0.7341026269064963,0.3026324510574341,-0.9366776943206787,-0.1762049049139023,-1.419464111328125,-50.01762390136719,9.7708740234375,2
1596230832.667537,107,0,103164.859993625,-1.338204779578891,1.026314424121482,1.219069668269429,0.03910099342465401,-0.3479551672935486,0.152047261595726,-0.02810701727867126,0.1024445295333862,-0.07680189609527588,2,0.6408848928658999,0.006363295858699575,-0.2226224551518497,0.7346190251912521,0.2946999371051788,-0.9387792348861694,-0.1784521192312241,-1.559730529785156,-50.02944946289062,9.527496337890625,2
1596230832.704197,108,0,103164.890092625,-1.335802565456312,1.019744568705033,1.218516517036991,-0.04264882206916809,-0.0470472015440464,-0.09371558576822281,0.05488431453704834,-0.05865299701690674,-0.02453374862670898,2,0.6400373524551108,0.004902273344775249,-0.2240164802318282,0.7349453176279654,0.2939636409282684,-0.938588559627533,-0.1806563138961792,-1.839988708496094,-49.92014312744141,9.62567138671875,2
1596230832.727756,109,0,103164.920191625,-1.330226673010092,1.008845172202106,1.218887030142236,-0.06803121417760849,-0.3582302033901215,0.1654669344425201,-0.04381677508354187,0.01194143295288086,0.0407259464263916,2,0.638875040427093,0.002555596612491357,-0.2253362179063601,0.7355648482765942,0.2916829884052277,-0.9387162923812866,-0.1836643069982529,-1.698051452636719,-50.04624176025391,9.571990966796875,2
1596230832.765273,110,0,103164.950290625,-1.320949741878285,0.9867938512216801,1.221987302612249,0.1224927976727486,-0.6450993418693542,-0.01598825305700302,-0.07781070470809937,0.04288178682327271,-0.02133715152740479,2,0.6369962049681696,-0.003621486407818314,-0.2279969105371758,0.7363694216632795,0.2851328253746033,-0.9397804141044617,-0.1884454339742661,-2.035812377929688,-50.02141571044922,9.371429443359375,2
1596230832.787941,111,0,103164.980389625,-1.329121276897054,0.9802237745695204,1.21872310407283,-0.2125403881072998,-0.05571579188108444,-0.1031676754355431,0.03100684285163879,-0.08110296726226807,0.1043896675109863,2,0.6355562545288043,-0.007565499264734099,-0.2340994635774669,0.7356686569430628,0.2864353656768799,-0.9386597871780396,-0.1920220255851746,-1.822593688964844,-50.02947998046875,9.355438232421875,2
1596230832.824892,112,0,103165.010488625,-1.323896510825526,0.9772190531628151,1.212184483464011,0.001857228577136993,-0.05029495432972908,-0.2514346241950989,-0.181367814540863,0.04909825325012207,-0.05892634391784668,2,0.6338935599076549,-0.004863435354815066,-0.2351383486090211,0.7367938660244899,0.290938675403595,-0.936384916305542,-0.1963106095790863,-1.244926452636719,-50.1484375,9.10308837890625,2
1596230832.848193,113,0,103165.040587625,-1.328595399571031,0.9848469588813286,1.205431005410382,-0.2017833590507507,0.2903087437152863,-0.1410343497991562,0.04797905683517456,0.01524090766906738,0.05655503273010254,2,0.6334107778986675,-0.001321077922204927,-0.2365260723498711,0.7367796629346859,0.2976896464824677,-0.9339932799339294,-0.1975780874490738,-1.150985717773438,-50.10232543945312,9.162811279296875,2
1596230832.88689,114,0,103165.070686625,-1.317165139560716,0.9804335230095961,1.202154725143038,-0.08237583190202713,-0.02409842610359192,0.1787862926721573,0.07859349250793457,-0.05482912063598633,-0.1163536310195923,2,0.6322189611278828,0.001744499034441738,-0.2347121701134093,0.7383807436876851,0.2993551790714264,-0.9328176975250244,-0.2005922794342041,-1.088584899902344,-50.04674530029297,9.0445556640625,2
1596230832.90829,115,0,103165.100785625,-1.302853077320917,0.9647871390312022,1.210045809551391,0.01381322368979454,-0.04606132954359055,0.2907905578613281,0.02127388119697571,0.1043508052825928,0.02371490001678467,2,0.6320360097816198,-0.002092043299407792,-0.2319602227530514,0.7394053630706453,0.2901206910610199,-0.9356321692466736,-0.2010522186756134,-1.517204284667969,-49.91532135009766,8.912994384765625,2
1596230832.946117,116,0,103165.130884625,-1.291331070028721,0.9509219862482721,1.212988141594771,-0.02850224077701569,-0.2174172252416611,0.08909674733877182,-0.02657759189605713,-0.01229166984558105,-0.008379578590393066,2,0.6310719555667405,-0.004539297157552802,-0.23118252157108,0.7404606355267211,0.2850632667541504,-0.9366666674613953,-0.2034551650285721,-1.8104248046875,-50.05417633056641,8.785247802734375,2
1596230832.96858,117,0,103165.160983625,-1.28943225670889,0.9418586254633736,1.217198587780656,0.07241334766149521,-0.2367520183324814,0.1474338322877884,-0.02259021997451782,-0.01274293661117554,-0.01558434963226318,2,0.6309284727855442,-0.008658082669107281,-0.2320664818570527,0.7402697119616384,0.2800160646438599,-0.9381330013275146,-0.203708603978157,-1.968299865722656,-50.12960052490234,8.9173583984375,2
1596230833.008698,118,0,103165.191082625,-1.283299277406098,0.9303581146485242,1.220141762124278,-0.01194962859153748,-0.1348909288644791,0.0697249174118042,-0.04811751842498779,0.02834039926528931,0.03723210096359253,2,0.6302581325718708,-0.01193215876293549,-0.2325355038471525,0.7406479293841461,0.2754397392272949,-0.9391480684280396,-0.205264613032341,-1.923988342285156,-50.19361877441406,9.014801025390625,2
1596230833.028952,119,0,103165.221181625,-1.287845659277574,0.9307399191846198,1.220763203870612,0.08509686589241028,-0.2138658612966537,-0.1245255321264267,-0.1015551686286926,0.003318428993225098,0.02580094337463379,2,0.6304081549921943,-0.013424138080254,-0.2339112409774718,0.7400612076240546,0.2750497460365295,-0.9393613338470459,-0.204810693860054,-2.101425170898438,-50.28426361083984,9.077392578125,2
1596230833.067217,120,0,103165.251280625,-1.302121405786052,0.9381628376157667,1.217700212793828,0.06884358823299408,-0.09945033490657806,-0.1679065525531769,0.03233179450035095,0.01077902317047119,0.01530200242996216,2,0.6305289992816315,-0.01418889188386432,-0.2377722695100275,0.7387123450935724,0.2788816094398499,-0.9383065700531006,-0.2044637054204941,-1.664222717285156,-50.12907409667969,9.147216796875,2
1596230833.088798,121,0,103165.281379625,-1.307186836593303,0.9398034627824067,1.218847022543749,0.133929118514061,-0.1492658406496048,0.09353329986333847,0.02640300989151001,-0.06302332878112793,-0.05646872520446777,2,0.6309298431636631,-0.0155529852985436,-0.2387784118009922,0.7380179367352032,0.2783480882644653,-0.9387025237083435,-0.2033712714910507,-1.503265380859375,-50.22517395019531,9.1492919921875,2
1596230833.122179,122,0,103165.311478625,-1.308801065473603,0.9380954871634247,1.220132734069369,-0.01429506670683622,-0.08709535002708435,-0.06760067492723465,-0.08480578660964966,0.05024826526641846,-0.04413741827011108,2,0.6309842321163567,-0.01711067049586376,-0.2395236718753042,0.7376952488743601,0.2770263850688934,-0.9391449689865112,-0.2031322419643402,-1.513664245605469,-50.12102508544922,9.2490234375,2
1596230833.149156,123,0,103165.341577625,-1.313952832288339,0.9453357025127302,1.218567259326475,-0.06573402136564255,0.2759225070476532,-0.06132999435067177,0.01058611273765564,0.03451985120773315,0.05445784330368042,2,0.6314801097442249,-0.01555704592152468,-0.2396124863749245,0.737276359229148,0.2796813547611237,-0.9386060237884521,-0.2019816935062408,-1.341079711914062,-50.05065155029297,9.243377685546875,2
1596230833.185119,124,0,103165.371676625,-1.303247127021537,0.9421788427233779,1.215339292049957,-0.1433745175600052,0.09908344596624374,0.05940424650907516,0.06914499402046204,-0.0125277042388916,-0.02330243587493896,2,0.6304971556264969,-0.01229357367238115,-0.237635708113898,0.7388175644720401,0.2814918458461761,-0.9374875426292419,-0.2046444118022919,-1.214187622070312,-50.41323089599609,9.07861328125,2
