loggingTime,loggingSample,identifierForVendor,motionTimestamp_sinceReboot,motionYaw,motionRoll,motionPitch,motionRotationRateX,motionRotationRateY,motionRotationRateZ,motionUserAccelerationX,motionUserAccelerationY,motionUserAccelerationZ,motionAttitudeReferenceFrame,motionQuaternionX,motionQuaternionY,motionQuaternionZ,motionQuaternionW,motionGravityX,motionGravityY,motionGravityZ,motionMagneticFieldX,motionMagneticFieldY,motionMagneticFieldZ,motionMagneticFieldCalibrationAccuracy
1596231040.862557,1,0,103373.059647,2.16918503316225,-0.980373534802596,1.283618661711871,0.04693996906280518,0.09700057655572891,0.01147502288222313,-0.02267929911613464,-0.007416427135467529,-0.02578401565551758,2,0.580199001037494,0.2907327811473815,0.4930997854138763,0.5793930752349767,-0.2352948784828186,-0.9590471386909485,-0.1576871424913406,-23.17552947998047,-44.22487640380859,13.11175537109375,2
1596231040.894812,2,0,103373.089745,2.171602221716632,-0.9824734862632239,1.284654261655445,0.03452392667531967,-0.06449342519044876,-0.02399878762662411,-0.01782602071762085,0.01566207408905029,-0.002857685089111328,2,0.5804064237603276,0.291217616693735,0.4928574582303912,0.5791479474737933,-0.2347991019487381,-0.9593399167060852,-0.1566413640975952,-22.96372222900391,-44.25546264648438,13.03033447265625,2
1596231040.916212,3,0,103373.119844,2.172947420348723,-0.9876011415434907,1.285754961949444,-0.01697607524693012,-0.1521240025758743,-0.02498506382107735,-0.004328250885009766,0.02018773555755615,0.03015071153640747,2,0.5815153909233168,0.2905390607860878,0.4914035100659848,0.5796116523832865,-0.2347177565097809,-0.9596500396728516,-0.1548538058996201,-23.04192352294922,-44.20858001708984,13.31134033203125,2
1596231040.947086,4,0,103373.149943,2.174054499230273,-0.9925948665031051,1.285454804631862,0.08204679936170578,-0.1564009934663773,0.04718581587076187,0.007149159908294678,-0.002160847187042236,-0.01352816820144653,2,0.5825692422977159,0.2893002020903415,0.490367617089723,0.5800500821853567,-0.2357289642095566,-0.9595655798912048,-0.1538369357585907,-22.90213775634766,-44.37869262695312,13.389892578125,2
1596231040.978782,5,0,103373.180041,2.17679342960496,-1.002558534819973,1.285621683246306,0.03071501851081848,-0.2895511388778687,-0.02660534530878067,-0.02136766910552979,0.02992987632751465,-0.02297711372375488,2,0.584618010908821,0.2872705883434874,0.4882016853046598,0.5808241897101259,-0.2371155768632889,-0.9596125483512878,-0.151394784450531,-23.04507446289062,-44.17646026611328,13.505126953125,2
1596231041.020662,6,0,103373.21014,2.178847830690488,-1.005633111548796,1.288186191537834,-0.01080671418458223,0.04486370831727982,-0.03260647132992744,-0.03887373208999634,0.0005675554275512695,0.01948702335357666,2,0.5851609235545309,0.2879468057365688,0.4870729065927739,0.5808903475728457,-0.2355010211467743,-0.9603308439254761,-0.1493466645479202,-22.82198333740234,-44.07864379882812,13.77590942382812,2
1596231041.036495,7,0,103373.240239,2.1794827765169,-1.004845142012408,1.285949709294183,-0.03556634485721588,0.007540433667600155,0.03269805386662483,0.01538035273551941,0.001885950565338135,-0.02267569303512573,2,0.5848011191949805,0.2875167786788528,0.4882084363129301,0.5805123398795762,-0.237195611000061,-0.9597047567367554,-0.1506835073232651,-22.77194976806641,-44.10226440429688,13.94070434570312,2
1596231041.079403,8,0,103373.270338,2.158581689767265,-0.9871300841476237,1.299303055847123,0.2701154053211212,-0.1845428645610809,-0.7509368062019348,0.01767346262931824,0.1198159456253052,-0.09128803014755249,2,0.5840162959590469,0.2916028415223036,0.482988638470419,0.5836222427246676,-0.2237746566534042,-0.9633715152740479,-0.1477854996919632,-22.24617004394531,-44.34328460693359,13.63418579101562,2
1596231041.096548,9,0,103373.300436,2.150654676858433,-0.9867878225916384,1.311222845772612,0.03605158999562263,-0.1943650841712952,0.09366301447153091,0.09698951244354248,-0.1668684482574463,0.0376439094543457,2,0.5855599448434395,0.2938699606757825,0.4769010683792242,0.5859397911217126,-0.2141281217336655,-0.9664995670318604,-0.1415199935436249,-21.67350006103516,-44.51654815673828,13.9039306640625,2
1596231041.143977,10,0,103373.330535,2.168557577622029,-1.008051455922187,1.30915679488057,0.1577841490507126,-0.09353514015674591,-0.03877038881182671,-0.06959253549575806,0.07943308353424072,-0.05187726020812988,2,0.5879321117257374,0.2921228585835309,0.4765744552161729,0.5847023743144493,-0.2187770009040833,-0.9659671783447266,-0.1380001306533813,-21.97579956054688,-44.30394744873047,14.32037353515625,2
1596231041.156801,11,0,103373.360634,2.18083091131706,-1.020424476606607,1.318952928688996,0.3913345336914062,0.0147502813488245,-0.2375963479280472,0.04983443021774292,0.05593878030776978,-0.1634616851806641,2,0.5893559957010186,0.2957969456711869,0.4733280588755535,0.5840584710521597,-0.2123920321464539,-0.9684547185897827,-0.1303273588418961,-21.76854705810547,-44.34726715087891,14.47589111328125,2
1596231041.203917,12,0,103373.390732,2.219800998268358,-1.060192915890151,1.327253528971329,0.3674574196338654,-0.2246143817901611,0.0325544998049736,0.2214602530002594,0.0007815361022949219,-0.05129730701446533,2,0.5931030289754998,0.2988394347765518,0.4702143969357195,0.5812249352541607,-0.2103853076696396,-0.9704897403717041,-0.1178475767374039,-21.42792510986328,-44.51246643066406,14.87564086914062,2
1596231041.21723,13,0,103373.420831,2.263630933045887,-1.118917023107207,1.331644215402452,0.4178270697593689,-0.7687888741493225,0.004728377796709538,0.04051592946052551,0.05400002002716064,-0.09337472915649414,2,0.6003062536922104,0.2965041610177125,0.4639856117194114,0.5800304741826139,-0.2131040245294571,-0.9715391993522644,-0.1034353673458099,-21.33405303955078,-44.41062164306641,15.58816528320312,2
1596231041.247192,14,0,103373.45093,2.312374031948921,-1.188400393582845,1.338004910814961,0.4165891408920288,-0.6603585481643677,-0.06017304584383965,-0.02157637476921082,0.07473361492156982,0.003107190132141113,2,0.6089723168136888,0.2934474365889226,0.4550434870959065,0.5796351600762751,-0.2140328735113144,-0.9730262160301208,-0.08608263731002808,-20.77285003662109,-43.90029907226562,16.7530517578125,2
1596231041.277685,15,0,103373.481029,2.3684615131821,-1.259065978679334,1.345166474220644,0.5044407248497009,-0.360254168510437,-0.1115832105278969,-0.1627916097640991,-0.02859711647033691,-0.07824492454528809,2,0.6164131871398766,0.2927907707059464,0.4473216260990299,0.5781106870809721,-0.2129389494657516,-0.9746533632278442,-0.06861669570207596,-20.84803771972656,-43.85321807861328,17.21755981445312,2
1596231041.322333,16,0,103373.511127,2.419164860599454,-1.317956759335929,1.353227218640477,0.4099549055099487,-0.3448820114135742,-0.1911889314651489,-0.0507485568523407,-0.02370333671569824,-0.005832135677337646,2,0.6215636632483572,0.2943805558288933,0.4411650741953165,0.5765171460986918,-0.2089934796094894,-0.9764250516891479,-0.05399740114808083,-20.05702209472656,-43.84799957275391,18.18792724609375,2
1596231041.337583,17,0,103373.541226,2.47739010057245,-1.388113038145084,1.361908807944446,0.4442667663097382,-0.5032486319541931,-0.2120141386985779,-0.06290990114212036,0.06946742534637451,0.1904629468917847,2,0.6276071095208111,0.2954196619565762,0.433304397631981,0.5753989469453574,-0.2039215117692947,-0.9782622456550598,-0.03767307847738266,-19.54114532470703,-43.76023864746094,19.36410522460938,2
1596231041.380234,18,0,103373.571325,2.521929540750126,-1.441398617903479,1.371497444090005,0.3159144222736359,-0.118413120508194,-0.3281664848327637,-0.1275396645069122,-0.05662935972213745,0.007453799247741699,2,0.6314834903599724,0.2974139747658504,0.4263975579436273,0.5752901330477527,-0.1963273882865906,-0.9802056550979614,-0.02554705739021301,-19.17908477783203,-43.59978485107422,19.83834838867188,2
1596231041.397779,19,0,103373.601423,2.578234879956016,-1.49430366919168,1.384135647692624,0.3643433451652527,0.09860715270042419,-0.3623353540897369,0.1020409166812897,0.0536467432975769,0.07933545112609863,2,0.6327178317037676,0.304265261241592,0.4220410095369521,0.573561030524175,-0.1850363463163376,-0.9826294183731079,-0.01418159250169992,-18.1744384765625,-43.5224609375,20.54376220703125,2
1596231041.444391,20,0,103373.631522,2.61607767899875,-1.534166925025354,1.391333211276006,0.202360063791275,-0.1034546792507172,-0.1486302018165588,0.001240253448486328,-0.006502509117126465,0.06305527687072754,2,0.6343243999832477,0.3071873447737172,0.4181397923485769,0.5730862348167345,-0.1783828735351562,-0.9839396476745605,-0.006536981556564569,-18.05089569091797,-43.51002502441406,20.59857177734375,2
1596231041.457906,21,0,103373.661621,2.650853549889856,-1.561283070982326,1.397935067727378,0.1560148447751999,0.3924086093902588,-0.2225829511880875,-0.05058559775352478,-0.0636942982673645,-0.06235086917877197,2,0.6336224610185428,0.3125770910470433,0.4175815759453252,0.5713526860431566,-0.171994611620903,-0.9850966334342957,-0.001636278117075562,-17.86408996582031,-43.55025482177734,21.0203857421875,2
1596231041.504002,22,0,103373.691719,2.671794608291989,-1.570138270268674,1.400871263641533,0.1198175400495529,0.5005677938461304,0.04465993493795395,0.2400679588317871,0.007964849472045898,0.1076884269714355,2,0.6317189655564339,0.3176090472334747,0.4199108006717971,0.5689733431162555,-0.1691090762615204,-0.9855974316596985,-0.0001112833415390924,-17.75358581542969,-43.38717651367188,20.84814453125,2
1596231041.517986,23,0,103373.721818,2.682741866894656,-1.570204598722909,1.395793590047063,-0.07201871275901794,-0.03709309920668602,0.2868566513061523,0.3965071439743042,-0.02305495738983154,0.1975240707397461,2,0.6307972909659025,0.3194421140998187,0.4244360056834886,0.5656021377385052,-0.1741118729114532,-0.9847260713577271,-0.0001030268977046944,-18.34438323974609,-43.25173950195312,20.86822509765625,2
1596231041.563206,24,0,103373.751917,2.648378701567033,-1.548087074687619,1.381868426926972,-0.243277907371521,-0.5642045140266418,0.6060160994529724,0.2785678803920746,0.06029725074768066,0.06816768646240234,2,0.6336544736026004,0.3104025008166383,0.4256686414282623,0.5665145237976735,-0.1877586245536804,-0.9822061657905579,-0.004264591261744499,-18.49723052978516,-43.01527404785156,20.66250610351562,2
1596231041.578214,25,0,103373.782016,2.628760102325506,-1.54947223375354,1.364148449491879,-0.1953185051679611,-0.7928077578544617,0.5461004972457886,-0.0448804497718811,-0.04272001981735229,0.01484322547912598,2,0.6395175031379785,0.2980434205877862,0.42474751602871,0.5672540571309889,-0.2051342576742172,-0.9787241816520691,-0.004374965094029903,-19.05994415283203,-42.80644226074219,20.83187866210938,2
1596231041.623249,26,0,103373.812114,2.588174333628595,-1.521716870100774,1.343742024126133,-0.3254777193069458,0.1902250647544861,0.7917166948318481,0.002332895994186401,-0.09834891557693481,0.3366063833236694,2,0.6423041222149396,0.2862228485568395,0.4280178268451655,0.567734764587177,-0.2248378992080688,-0.9743337035179138,-0.01104379072785378,-19.25366973876953,-42.93464660644531,20.67013549804688,2
1596231041.638513,27,0,103373.842213,2.540286841437243,-1.474762827924376,1.321764248681801,-0.433480978012085,-0.4162794053554535,0.5320347547531128,0.0505300760269165,0.04509365558624268,0.1748398542404175,2,0.6415367190986985,0.2767928272212286,0.4359459286441039,0.5672458034195369,-0.2453314960002899,-0.9691514372825623,-0.02363273687660694,-20.40620422363281,-42.64635467529297,20.2884521484375,2
1596231041.679414,28,0,103373.872312,2.483825129508133,-1.444438237700459,1.305146479052387,-0.6951559782028198,-1.136680364608765,0.6179631352424622,0.4452614784240723,-0.2759361267089844,-0.09975636005401611,2,0.6442340883055507,0.2615715945888858,0.4345607760405226,0.5724507590377198,-0.2604440152645111,-0.9649220705032349,-0.03308548033237457,-20.58701324462891,-42.930908203125,19.9229736328125,2
1596231041.698609,29,0,103373.90241,2.428677483582532,-1.425351357346404,1.266105647978366,-1.13860809803009,-1.511003971099854,2.203368186950684,1.61939001083374,-0.7205420732498169,0.001663088798522949,2,0.6502211089496337,0.2355263903011885,0.4366703034851911,0.5753773777971279,-0.2968313694000244,-0.9539397954940796,-0.04347965866327286,-21.17714691162109,-42.51127624511719,19.85372924804688,2
1596231041.739097,30,0,103373.932509,2.329927525259278,-1.453193837678447,1.155234668872033,-1.645815253257751,-5.274100303649902,4.135872840881348,1.884628295898438,-1.229645490646362,0.03627455234527588,2,0.6724671877245193,0.1552554709071247,0.4321121692602111,0.5804849507542332,-0.4009155929088593,-0.9148896932601929,-0.04736724123358727,-22.49056243896484,-42.16460418701172,19.4698486328125,2
1596231041.76078,31,0,103373.962608,2.222615301975818,-1.491420334694152,1.014449431672239,-2.507315874099731,-4.867718696594238,4.906542301177979,0.8299897313117981,-1.06628942489624,0.2330213189125061,2,0.6898089119590852,0.05680602632227777,0.4293501032179385,0.5801683421334727,-0.5264249444007874,-0.8491899371147156,-0.04187348112463951,-25.31407928466797,-40.19284057617188,20.41009521484375,2
1596231041.799822,32,0,103373.992707,2.100868581843966,-1.556116849350745,0.8668538428316012,-2.700650930404663,-5.914176940917969,4.350978374481201,0.1033036112785339,0.2305328845977783,0.5431876182556152,2,0.7014145437989424,-0.05716048377442631,0.414289288580133,0.5771611035190658,-0.647158682346344,-0.7622964382171631,-0.009500633925199509,-27.98272705078125,-37.61051940917969,21.60336303710938,2
1596231041.818968,33,0,103374.022805,1.980465971033117,-1.668121104548189,0.7648309726244318,-2.659955978393555,-6.818870067596436,2.62345290184021,-0.1775256991386414,0.768998384475708,0.759763240814209,2,0.7120927685157803,-0.1672673883817821,0.3696117051424885,0.5730033084553805,-0.7180851697921753,-0.6924150586128235,0.07010897994041443,-28.20772552490234,-36.80460357666016,22.94046020507812,2
1596231041.864578,34,0,103374.052904,1.848998059049471,-1.76189571172379,0.7076969707221551,-3.011478424072266,-5.127401351928711,2.460044384002686,-0.1660869717597961,0.2843258380889893,0.3539977073669434,2,0.7104362043588616,-0.2596994571528812,0.3156257236255512,0.5729023714595515,-0.7460287809371948,-0.6500855088233948,0.1443268209695816,-25.84645080566406,-37.15087127685547,24.73806762695312,2
1596231041.879331,35,0,103374.083003,1.717562969898605,-1.781420681480598,0.6495433782717501,-3.037243604660034,-1.28943145275116,2.409340143203735,-0.3177924156188965,0.3366575241088867,0.6762033700942993,2,0.6889534965207897,-0.3295311776122122,0.2890900607068455,0.5772169049108383,-0.7787611484527588,-0.6048228144645691,0.1664954274892807,-25.38763427734375,-37.45607757568359,24.7890625,2
1596231041.922501,36,0,103374.113101,1.581328165697107,-1.702696628848373,0.6210338737219747,-3.610613822937012,0.5593854784965515,0.6875694990158081,-0.1639382839202881,0.6838462948799133,0.2408496141433716,2,0.6507113187049529,-0.3606316176371941,0.284354275676263,0.6047002408137756,-0.8062131404876709,-0.581876277923584,0.106960766017437,-27.63848876953125,-38.35540771484375,20.74002075195312,2
1596231041.93942,37,0,103374.1432,1.450065380676403,-1.609034671041969,0.6296775017330748,-3.48756217956543,0.3901887536048889,-0.5586873888969421,0.248749852180481,0.7727991938591003,0.2554197311401367,2,0.6150453656839909,-0.3703618310532723,0.2702761426392635,0.6414844481568738,-0.8076269030570984,-0.5888841152191162,0.03089737519621849,-28.08469390869141,-39.51615905761719,17.80892944335938,2
1596231041.980548,38,0,103374.173299,1.321740261409899,-1.537408875739865,0.6578376367175444,-3.271008968353271,-0.8270074129104614,-1.21970546245575,0.4100046157836914,0.6240489482879639,0.06671428680419922,2,0.5871486768064484,-0.376893710668308,0.2402726678981234,0.6748901221775147,-0.790875256061554,-0.6114071607589722,-0.02641512453556061,-27.49984741210938,-42.31431579589844,12.3411865234375,2
1596231041.999722,39,0,103374.203397,1.199763639279729,-1.513990945251202,0.6955284709727485,-2.947268486022949,-2.646078586578369,-1.580913305282593,0.1953729391098022,0.3090976476669312,0.03116071224212646,2,0.5689608669938315,-0.3930522540871108,0.1926270276530703,0.6961957007652231,-0.7664770483970642,-0.6407912373542786,-0.04358691349625587,-26.24250030517578,-43.44515228271484,10.2615966796875,2
1596231042.041344,40,0,103374.233496,1.076965136399791,-1.529700798113482,0.7441109254731667,-3.037411689758301,-3.609459161758423,-1.95740270614624,-0.00733715295791626,0.05969208478927612,0.2647755146026611,2,0.5559721712617572,-0.4192641235611661,0.1285895748713541,0.7061000766400505,-0.7350693345069885,-0.6773179769515991,-0.03022507950663567,-22.66919708251953,-45.75759124755859,7.47998046875,2
1596231042.061502,41,0,103374.263595,0.9524622303381077,-1.548093020432918,0.7997836979588161,-2.716901540756226,-3.237270593643188,-1.706151962280273,-0.02609819173812866,-0.2337461113929749,0.2187683582305908,2,0.5425966321850554,-0.4446111062645317,0.0600908059531749,0.710140285385654,-0.6966826319694519,-0.7172053456306458,-0.01581971719861031,-20.39378356933594,-46.73065185546875,6.10821533203125,2
1596231042.100657,42,0,103374.293694,0.8402374238902368,-1.562976514387193,0.8362263834513314,-2.273706674575806,-3.224231004714966,-0.9806768298149109,-0.1369590759277344,-0.1822117567062378,0.403935432434082,2,0.5256972673038061,-0.4701294749494174,0.003473657327031643,0.708949103422837,-0.6702479124069214,-0.7421190738677979,-0.005241320002824068,-16.88435363769531,-48.14871215820312,3.394622802734375,2
1596231042.120011,43,0,103374.323792,0.7550552703492404,-1.60087526114425,0.8644528797437097,-1.529844880104065,-3.353807210922241,-0.7802445292472839,0.04323935508728027,-0.07182562351226807,0.4448254108428955,2,0.5113891568321676,-0.498238017730464,-0.04635456588837947,0.6986353171562605,-0.6487628817558289,-0.7607402801513672,0.01951998472213745,-15.92029571533203,-48.56790161132812,2.152374267578125,2
1596231042.157523,44,0,103374.353891,0.6886940024166283,-1.638296116300886,0.8830933258617598,-1.248482346534729,-2.292572498321533,-0.3890988230705261,0.113686740398407,0.03916764259338379,0.3494771718978882,2,0.4976472379135161,-0.523215235195843,-0.08546336054838438,0.6865050057192894,-0.6333185434341431,-0.7727060914039612,0.04281391203403473,-14.36170196533203,-49.13622283935547,0.7437744140625,2
1596231042.180263,45,0,103374.38399,0.6466107844884301,-1.653347575353706,0.8968387923538368,-0.6748944520950317,-1.06574535369873,-0.4568396806716919,0.2192800045013428,0.20537930727005,-0.03248798847198486,2,0.489055707820456,-0.5353080374885746,-0.1085110548337815,0.6800700518159826,-0.6219580173492432,-0.7813579440116882,0.05146035924553871,-14.04883575439453,-49.11578369140625,0.221588134765625,2
1596231042.222523,46,0,103374.414088,0.6577756481800235,-1.700942809715726,0.9142923639908801,1.038517594337463,-1.183680415153503,-0.5647728443145752,-0.675955057144165,0.2622607946395874,0.3570407629013062,2,0.4933775162193679,-0.5442280390302174,-0.1227867072206697,0.6673215937876099,-0.6051898598670959,-0.7921308875083923,0.07921106368303299,-13.27090454101562,-49.45999908447266,-0.223052978515625,2
1596231042.240362,47,0,103374.444187,0.6907663048152174,-1.723106821586123,0.9165629169627237,0.2810251712799072,2.271030902862549,-0.04327209666371346,-0.6435414552688599,-0.0003132224082946777,0.2962691783905029,2,0.5015130592596689,-0.5428167687864532,-0.1181600619664509,0.663229134482153,-0.6015061736106873,-0.7935146689414978,0.09233078360557556,-12.42779541015625,-49.30323791503906,1.107757568359375,2
1596231042.280269,48,0,103374.474286,0.7442937107438906,-1.684512468023165,0.9309229191101095,1.315980792045593,2.336578845977783,-1.120426774024963,-0.6365130543708801,0.4610391855239868,0.06383204460144043,2,0.5208186055153559,-0.512468992260034,-0.09563899792726929,0.67600053317676,-0.5932374596595764,-0.8021713495254517,0.06775297224521637,-12.35536956787109,-49.44696807861328,1.56787109375,2
1596231042.300546,49,0,103374.504384,0.7771790207254223,-1.643759040455568,0.9635371144232215,0.338493287563324,1.969764828681946,-1.035991430282593,-0.2402989268302917,0.1600032448768616,-0.1214264631271362,2,0.5378659820609006,-0.4811430990405759,-0.08546673449037476,0.6869476886588776,-0.5691009759902954,-0.821215033531189,0.04159699380397797,-10.53298950195312,-49.64183807373047,1.976715087890625,2
1596231042.343914,50,0,103374.534483,0.7878911420655172,-1.62290251000355,0.9894773195513326,-0.2526045739650726,-0.1283068209886551,-0.791452169418335,0.1904469728469849,-0.1169282197952271,-0.1130102872848511,2,0.5468468005867196,-0.463959659168815,-0.08542515700271303,0.691666679484643,-0.5483819246292114,-0.8357390761375427,0.02859997749328613,-9.529365539550781,-49.81430816650391,2.27374267578125,2
1596231042.361068,51,0,103374.564582,0.7767241525426896,-1.634706132126843,1.010111970384703,-0.2080153226852417,-1.030954003334045,-0.4577363431453705,0.5632022619247437,-0.2130123376846313,0.06487202644348145,2,0.5480790817563381,-0.4653926193559462,-0.09988966487769435,0.6877799130510207,-0.5306805372238159,-0.8468914031982422,0.0339619405567646,-8.176849365234375,-49.83067321777344,1.85321044921875,2
1596231042.402493,52,0,103374.594681,0.7671014618887658,-1.660735298678841,1.016905417983117,-0.1859728693962097,-0.9048911333084106,-0.1005001962184906,0.2475865483283997,-0.241107702255249,0.1628099679946899,2,0.5458468114053217,-0.4750509035073733,-0.1127416460975235,0.6809312506561442,-0.5238747000694275,-0.8504843711853027,0.04724420607089996,-7.72601318359375,-50.13761138916016,1.876007080078125,2
1596231042.420999,53,0,103374.624779,0.7545865389562348,-1.668655731250919,1.021854877937816,-0.2426116168498993,-0.4292410314083099,-0.1836807876825333,-0.1450179815292358,-0.02873134613037109,0.05092895030975342,2,0.5434152854780385,-0.4797810620374857,-0.1209358534672255,0.6781479015645728,-0.5192882418632507,-0.8530773520469666,0.05098007991909981,-7.602592468261719,-50.18535614013672,1.491302490234375,2
1596231042.461428,54,0,103374.654878,0.745386643049283,-1.667761076460623,1.030445564665861,-0.1394305378198624,0.1226476430892944,-0.3934005200862885,-0.1251341104507446,0.1650209426879883,-0.03508317470550537,2,0.5430316830375759,-0.479602594875269,-0.1269089128043344,0.6774895686246269,-0.5120204091072083,-0.8575282692909241,0.04980411380529404,-7.434577941894531,-50.08089447021484,1.407989501953125,2
1596231042.481184,55,0,103374.684977,0.7421629944907323,-1.656205589584663,1.045961622686769,-0.0597965195775032,0.3328618705272675,-0.5889827013015747,-0.04598540067672729,0.009968101978302002,0.00500333309173584,2,0.5462056204622886,-0.4722620490675289,-0.1304336538002555,0.6794227496243603,-0.4992439746856689,-0.8654067516326904,0.04274404421448708,-6.434188842773438,-50.21945953369141,1.071136474609375,2
1596231042.521789,56,0,103374.715075,0.7402056388024638,-1.638239792907116,1.062662635618576,-0.08906178921461105,0.8498492240905762,-0.4452951550483704,0.1511116623878479,-0.1729084253311157,0.1607555150985718,2,0.5503831596090606,-0.4620315775198696,-0.1321438870037353,0.6827468886208686,-0.4854417145252228,-0.8736540675163269,0.03278960287570953,-5.911796569824219,-50.26705932617188,0.918212890625,2
1596231042.541302,57,0,103374.745174,0.734593126293784,-1.603738261567613,1.072290559038986,-0.1157248020172119,1.052941799163818,-0.2356825321912766,0.2875237762928009,-0.1394221782684326,0.110620379447937,2,0.5533727980890788,-0.4490569299733075,-0.1279589147948996,0.6897486493508773,-0.47785484790802,-0.8782979846000671,0.01574715971946716,-5.157440185546875,-50.31178283691406,0.805450439453125,2
1596231042.579101,58,0,103374.775273,0.723955168161219,-1.566665244818151,1.077099164882561,-0.2037160843610764,0.6694058775901794,-0.04456588253378868,0.2238335311412811,-0.1107649207115173,0.003738284111022949,2,0.5543826718830449,-0.4378139170053145,-0.123062410691105,0.6970185209964949,-0.4738814830780029,-0.8805868625640869,-0.001957654487341642,-4.958839416503906,-50.13224792480469,0.94635009765625,2
1596231042.601722,59,0,103374.805371,0.712169700064453,-1.535756857424318,1.076861536154263,-0.1032751351594925,0.8510600924491882,-0.001786024775356054,0.1520690321922302,0.04431796073913574,0.07213515043258667,2,0.5536384043482366,-0.4303256907322954,-0.1185434979431843,0.7030307031463814,-0.4738038778305054,-0.8804742097854614,-0.01660863496363163,-4.542533874511719,-50.44986724853516,0.219482421875,2
1596231042.641702,60,0,103374.83547,0.7185356297220363,-1.508751753266041,1.076834514983469,0.3658977448940277,1.230727553367615,0.1173359900712967,0.3045392036437988,-0.02945554256439209,0.171587347984314,2,0.5565189176388712,-0.4190320978148223,-0.1087917678347669,0.7091285645004726,-0.4732058942317963,-0.8804613947868347,-0.02939759008586407,-4.694602966308594,-50.22321319580078,0.138824462890625,2
1596231042.661926,61,0,103374.865569,0.7329309776824254,-1.490750332401736,1.066445322116335,0.06044331938028336,0.882983922958374,0.6144233345985413,0.2130610346794128,-0.06118488311767578,0.4226111173629761,2,0.5580113454187131,-0.4114647942446227,-0.09511805999661965,0.7143338746013966,-0.4816925823688507,-0.87548828125,-0.03864012286067009,-5.077644348144531,-50.11876678466797,0.586761474609375,2
1596231042.703101,62,0,103374.895668,0.7638228914688672,-1.478960579556095,1.045485319219799,0.8307711482048035,1.874839425086975,0.6530393958091736,-0.1259816288948059,0.1839821934700012,0.6281823515892029,2,0.5599052947010664,-0.4043654239662495,-0.0736306451241919,0.719425813877812,-0.4993694722652435,-0.865168035030365,-0.04598933085799217,-5.677207946777344,-50.16353607177734,0.7027587890625,2
1596231042.722108,63,0,103374.925766,0.8296182792039998,-1.456869366125468,1.045024959538212,1.250930309295654,3.510461568832397,-0.4453172981739044,-0.7025550007820129,0.2195758819580078,0.7913472056388855,2,0.5733137933989406,-0.3778679995329476,-0.04344064932435793,0.7256997930167832,-0.4986272156238556,-0.8649370670318604,-0.05705413967370987,-6.560981750488281,-49.84535980224609,1.935882568359375,2
1596231042.762751,64,0,103374.955865,0.910917518633042,-1.390019667803275,1.072770007108741,1.979074835777283,5.285905838012695,-0.7409399747848511,-0.1557278633117676,0.06244075298309326,0.4040281772613525,2,0.5946173825555143,-0.3216940974008263,-0.003501892079593283,0.7368385405762307,-0.4699086546897888,-0.8785271048545837,-0.085886150598526,-5.762351989746094,-50.11118316650391,3.922210693359375,2
1596231042.782425,65,0,103374.9859650417,1.056267916571312,-1.344684648787362,1.094502310436595,2.44958233833313,6.032124996185303,0.3829385340213776,0.05540567636489868,0.08955460786819458,0.2153389453887939,2,0.6196469958255665,-0.2542503496676931,0.05675104616497234,0.7403877745313918,-0.4468189179897308,-0.8887001872062683,-0.1027887240052223,-5.766883850097656,-49.74574279785156,5.74505615234375,2
1596231042.820433,66,0,103375.0160630417,1.240013491767452,-1.339181196699172,1.091413585437056,2.995142936706543,4.861824989318848,0.8627222776412964,-0.4175203442573547,-0.03665649890899658,-0.1189184784889221,2,0.6394622134273529,-0.1953207654384235,0.1272312255056254,0.7326324933702908,-0.4489158093929291,-0.8872798085212708,-0.1058757528662682,-8.309661865234375,-49.03776550292969,9.661956787109375,2
1596231042.844907,67,0,103375.0461620417,1.443791927697015,-1.40381494135532,1.083661204245862,2.931392192840576,3.148903369903564,0.9572921991348267,0.06370925903320312,0.1751609444618225,0.02096790075302124,2,0.6611218952113177,-0.154975724348995,0.1824075307346579,0.7110753755052139,-0.461586058139801,-0.8836775422096252,-0.07780072838068008,-10.00468444824219,-48.48744964599609,12.18988037109375,2
1596231042.879153,68,0,103375.0762610417,1.626426771374912,-1.482253627268786,1.064192512036742,2.690545797348022,2.462628126144409,1.017920851707458,0.1070356369018555,0.0881616473197937,-0.01425766944885254,2,0.6798493344915357,-0.1278748876190374,0.2264821836055788,0.6856814678833332,-0.4833104014396667,-0.8743973970413208,-0.04290579259395599,-13.26087951660156,-46.61427307128906,16.320556640625,2
1596231042.902564,69,0,103375.1063590417,1.779448028162821,-1.525695436703076,1.041297559336069,2.177320241928101,3.742390871047974,0.7456308007240295,-0.3565759658813477,-0.06847357749938965,0.04910081624984741,2,0.6920978953284745,-0.09805153879795267,0.2707657983534557,0.6618704986901895,-0.504587709903717,-0.8630603551864624,-0.02277279831469059,-15.08187866210938,-45.31217193603516,17.90234375,2
1596231042.94411,70,0,103375.1364580417,1.904133167279831,-1.505412734621594,1.029455391137445,2.082229375839233,4.471548557281494,0.2828097939491272,-0.1421490907669067,-0.02535891532897949,0.02270102500915527,2,0.6931214024247653,-0.05243179980028798,0.3223089022635919,0.6426125031763956,-0.5141850709915161,-0.8570184707641602,-0.03366725519299507,-18.72737884521484,-43.48052215576172,19.32949829101562,2
1596231042.964028,71,0,103375.1665570417,2.0192348358917,-1.477152764650874,1.027890465072522,1.811077475547791,3.740786790847778,0.1842326521873474,0.3915700316429138,-0.04354178905487061,0.00225067138671875,2,0.6898028818880099,-0.004237506100255639,0.3690067525617635,0.6228869242244824,-0.5143628120422363,-0.8562110662460327,-0.04830805584788322,-20.83493804931641,-42.80017852783203,19.6407470703125,2
1596231043.003991,72,0,103375.1966560417,2.117240410611351,-1.471350365876202,1.027896782270144,1.546202421188354,2.258891344070435,0.0986689031124115,0.5323089361190796,0.005869507789611816,-0.04080629348754883,2,0.6880217995177548,0.03131086928251914,0.4010708323354885,0.6039769128663184,-0.5140688419342041,-0.8562143445014954,-0.05129126459360123,-23.73834991455078,-41.27450561523438,19.89404296875,2
1596231043.022897,73,0,103375.2267540417,2.199146498929444,-1.492500072176028,1.035132928912078,1.274158477783203,1.134931564331055,-0.3760270476341248,0.3216331005096436,0.03472262620925903,0.007969856262207031,2,0.6905934916661894,0.05585126033565929,0.4160451154853633,0.5889549599268594,-0.5088483691215515,-0.8599302172660828,-0.03992253169417381,-24.72377014160156,-40.49894714355469,20.0545654296875,2
1596231043.061678,74,0,103375.2568530417,2.26500230914804,-1.519470868035141,1.058874993805287,1.024977922439575,1.043390512466431,-1.066659688949585,0.1683750152587891,0.02759653329849243,0.1559374928474426,2,0.6936491467748923,0.07928047352941209,0.4189858541082512,0.5805313509069443,-0.4892087578773499,-0.87180495262146,-0.02513093501329422,-24.88287353515625,-39.98859405517578,20.99322509765625,2
1596231043.083365,75,0,103375.2869520417,2.319627244446997,-1.529099370922234,1.099373779939046,0.8101588487625122,1.543412685394287,-1.496991276741028,0.2934921979904175,0.02303856611251831,0.2051024436950684,2,0.6917173550986229,0.1098244349998221,0.4196636911107815,0.5773633355626685,-0.4537601172924042,-0.8909231424331665,-0.01893138885498047,-24.42814636230469,-40.09088897705078,21.4229736328125,2
1596231043.121538,76,0,103375.3170500417,2.351409958813813,-1.480368161875876,1.153783176453221,0.3283893167972565,3.570587158203125,-2.046915292739868,0.3102978467941284,-0.01844364404678345,0.3541562557220459,2,0.676727964850157,0.154113821130393,0.4295961850653852,0.5776984298584786,-0.4033768773078918,-0.9143027663230896,-0.03657638281583786,-23.83322143554688,-40.84230041503906,21.07467651367188,2
1596231043.144283,77,0,103375.3471490417,2.366251389968001,-1.37707445474175,1.221615524315133,0.9300872087478638,3.80040454864502,-2.202822208404541,0.3289783298969269,-0.2187246084213257,0.251280665397644,2,0.6493083948860534,0.213228990673659,0.4478501001383814,0.5765088322402212,-0.3357288539409637,-0.9396532773971558,-0.06586401164531708,-23.50838470458984,-41.44297027587891,19.8323974609375,2
1596231043.18084,78,0,103375.3772480417,2.42780901656047,-1.361114327881548,1.278647321975503,0.6156721115112305,1.282756328582764,-1.164253354072571,0.5580945014953613,-0.5980392694473267,-0.1405344009399414,2,0.635146180759056,0.2580982324491831,0.4532570088166821,0.5696779000378498,-0.2817032039165497,-0.9576271772384644,-0.05994926393032074,-22.37950897216797,-42.33297729492188,18.4976806640625,2
1596231043.203584,79,0,103375.4073460417,2.434903785661142,-1.343161347067945,1.303906685523463,0.0282901506870985,-0.06079181283712387,-0.5112887620925903,0.6626317501068115,-0.4376535415649414,-0.4147605895996094,2,0.6284105839326829,0.2744836663240116,0.4531961576923466,0.5695368569625312,-0.2569293975830078,-0.9645958542823792,-0.05951771140098572,-21.74251556396484,-42.8817138671875,18.2861328125,2
1596231043.242161,80,0,103375.4374450417,2.436863346085354,-1.399568323705621,1.313690184909486,0.3708485960960388,-2.586423397064209,-0.2297600954771042,0.1737572550773621,0.1438338756561279,-0.3269414305686951,2,0.6399121042280923,0.2623899603879311,0.4328596823827798,0.5781839494422576,-0.2505649626255035,-0.9671298861503601,-0.04332801327109337,-21.00988006591797,-43.03090667724609,18.80599975585938,2
1596231043.263812,81,0,103375.4675440417,2.499250218880396,-1.500647741379051,1.329521436352443,0.7295873761177063,0.09153570979833603,-0.8293483853340149,-0.1581568419933319,0.1559096574783325,0.2020034790039062,2,0.6516784278271629,0.2587303237364433,0.4134913192159467,0.5808606075131322,-0.2383542358875275,-0.9710341691970825,-0.01674769259989262,-19.11056518554688,-42.94659423828125,20.61920166015625,2
1596231043.303518,82,0,103375.4976430417,2.593496586475063,-1.555653342492749,1.356585239017355,0.5362617969512939,1.544094204902649,-0.5782075524330139,-0.1799048781394958,-0.1807299852371216,0.06035768985748291,2,0.6469912683222327,0.2824762422420133,0.4148758933707259,0.5740102472870477,-0.2125536501407623,-0.9771444201469421,-0.003218942554667592,-18.67315673828125,-43.11117553710938,21.09835815429688,2
1596231043.323984,83,0,103375.5277410417,2.6642953713188,-1.605335184610317,1.36571327422973,0.532606840133667,-0.04825086146593094,-0.2346507161855698,0.1810766756534576,0.05398404598236084,0.168342113494873,2,0.6457707077093995,0.2941026998238256,0.4164431158494964,0.5683828456567597,-0.2035276740789413,-0.9790440797805786,0.007032409776002169,-18.7061767578125,-42.70527648925781,21.4017333984375,2
1596231043.364647,84,0,103375.5578400417,2.734705337646398,-1.671318823537513,1.375789376435933,0.2865988910198212,0.05334077402949333,-0.3672279119491577,0.4980316162109375,-0.1062632203102112,0.2496592998504639,2,0.6472733854424961,0.3012641894481757,0.4123278666071793,0.5659178163469989,-0.1927961707115173,-0.9810463190078735,0.01944589428603649,-18.37444305419922,-42.60129547119141,21.6998291015625,2
1596231043.384229,85,0,103375.5879390417,2.76165095359999,-1.710669254538116,1.377891143596186,0.1264941841363907,-0.6308354735374451,0.1365823447704315,0.02718493342399597,0.03223955631256104,-0.003405332565307617,2,0.6508984844162262,0.2994915340884396,0.406634519216155,0.5668197482566465,-0.1898401528596878,-0.9814514517784119,0.02672803215682507,-17.85463714599609,-42.80912017822266,22.13272094726562,2
1596231043.424541,86,0,103375.6180370417,2.793592326782936,-1.7502551164001,1.376177236535758,0.2720028162002563,0.1599005460739136,-0.1898511946201324,-0.1947420835494995,0.06974679231643677,0.005494356155395508,2,0.6544703781373322,0.2982091231986749,0.403198954234954,0.5658362986657163,-0.1902884542942047,-0.9811214208602905,0.03452031314373016,-17.63408660888672,-42.57199096679688,22.55731201171875,2
1596231043.44438,87,0,103375.6481360417,2.832531967003276,-1.781171275430576,1.382906739127862,0.1257658004760742,0.3330285847187042,-0.2471285909414291,-0.02464082837104797,-0.02908450365066528,0.08049046993255615,2,0.653471111817574,0.3041029406329702,0.4024230250539682,0.5644048789486982,-0.1826692819595337,-0.9824005961418152,0.03900618478655815,-17.384033203125,-42.28020477294922,22.88323974609375,2
1596231043.484009,88,0,103375.6782350417,2.858429916649045,-1.796915367418368,1.386298807760999,0.1118024885654449,0.1307194381952286,-0.05591993406414986,0.1986234784126282,0.07308411598205566,0.06907534599304199,2,0.6519598472112123,0.3090522430132566,0.4037605739663258,0.5625057564948541,-0.1787840276956558,-0.9830285310745239,0.04112986102700233,-17.51849365234375,-42.33592987060547,22.79119873046875,2
1596231043.504652,89,0,103375.7083330417,2.869072409559668,-1.813578189546163,1.38728074084012,0.04123251140117645,-0.4582042098045349,-0.02988370507955551,0.0766831636428833,0.03954434394836426,0.09226691722869873,2,0.6534589553698978,0.3081019470325262,0.4010837507281039,0.5632020537111563,-0.177136242389679,-0.9832082390785217,0.04387083277106285,-17.41032409667969,-42.32360076904297,22.94375610351562,2
1596231043.545794,90,0,103375.7384320417,2.870247612277228,-1.833244102733,1.388346875353463,-0.08899960666894913,-0.5649522542953491,-0.1406614929437637,-0.09013825654983521,0.05660176277160645,0.1935118436813354,2,0.656959047572045,0.3032190362007138,0.3947226250810977,0.566266186914519,-0.1752278208732605,-0.9834021925926208,0.04707394912838936,-17.15864562988281,-42.36935424804688,23.23739624023438,2
1596231043.564821,91,0,103375.7685310417,2.880083023502942,-1.854086966392581,1.395081696077011,0.1247461140155792,-0.3093792796134949,-0.2213310152292252,-0.06872269511222839,-0.03448224067687988,-0.1041398048400879,2,0.6580571814323632,0.3023116694537556,0.3890959653298268,0.5693618912413306,-0.167845293879509,-0.9846018552780151,0.04886319860816002,-16.52596282958984,-42.49385070800781,23.36074829101562,2
1596231043.606437,92,0,103375.7986300417,2.890906346683704,-1.871190131107339,1.399158668229973,-0.09039336442947388,-0.1091241538524628,-0.0553673729300499,0.08577260375022888,-0.0112917423248291,0.05166292190551758,2,0.6588100371627424,0.3020572712574536,0.3856151926828935,0.570992087494522,-0.1631496995687485,-0.9853063821792603,0.05053852126002312,-16.12197113037109,-42.55297088623047,23.51126098632812,2
1596231043.624959,93,0,103375.8287280417,2.866850536528891,-1.84636966827293,1.398761024074381,-0.2380699664354324,0.2126306146383286,0.1251341104507446,0.06235063076019287,-0.06969499588012695,0.07510030269622803,2,0.6577330194847902,0.3011269871194102,0.3870035759165929,0.5717851503259758,-0.1647301763296127,-0.9852383732795715,0.04658037424087524,-16.06623840332031,-42.68565368652344,23.50299072265625,2
1596231043.664308,94,0,103375.8588270417,2.836918327750889,-1.80080101794503,1.395426647294006,-0.08152658492326736,0.6623634099960327,0.1646849811077118,-0.03797450661659241,0.02907049655914307,-0.1710993051528931,2,0.6540831676730826,0.3034199100152987,0.3942009575867896,0.5698398201434145,-0.1698789298534393,-0.9846621155738831,0.03977686539292336,-16.69654083251953,-42.81156158447266,23.16421508789062,2
1596231043.685184,95,0,103375.8889260417,2.813463014814997,-1.76337185238175,1.392045350436428,-0.1693812757730484,0.2794272303581238,0.1464112550020218,0.05719494819641113,-0.01401376724243164,0.01577377319335938,2,0.6509215872589442,0.305475985894909,0.4005730523451849,0.5679145197883299,-0.1745148003101349,-0.9840665459632874,0.03402898088097572,-16.96369934082031,-42.68524169921875,22.88174438476562,2
1596231043.724747,96,0,103375.9190240417,2.764767194505282,-1.711094681319613,1.3881213726706,-0.2834165692329407,0.0008666445501148701,0.1854762732982635,0.2379245460033417,-0.02832436561584473,0.172040581703186,2,0.6485827830297186,0.3033843453270773,0.4047204248073648,0.5687705676445893,-0.1798772215843201,-0.9833613038063049,0.02540337480604649,-17.56063079833984,-42.92345428466797,22.35952758789062,2
1596231043.745338,97,0,103375.9491230417,2.702805068862069,-1.654488691927038,1.383185585741854,-0.3981284499168396,-0.2338836938142776,0.2278051674365997,0.01378163695335388,0.02702856063842773,0.05154109001159668,2,0.6473093288567076,0.297970484313985,0.4067101092843289,0.5716567142706364,-0.1858608424663544,-0.9824526906013489,0.01559155341237783,-17.61582183837891,-42.83265686035156,22.45730590820312,2
1596231043.784806,98,0,103375.9792220417,2.643687728751675,-1.59869140039692,1.37770298257843,-0.3671844601631165,0.1818838715553284,0.175347164273262,-0.1274670958518982,-0.005761325359344482,-0.07758891582489014,2,0.6455583600156786,0.2931391346781349,0.4093331223461753,0.5742565378708776,-0.1918227076530457,-0.981415331363678,0.005352296866476536,-17.90465545654297,-42.96493530273438,21.47430419921875,2
1596231043.805549,99,0,103376.0093201667,2.587418137043632,-1.532877110100347,1.372074700026644,-0.3391965329647064,0.3677423000335693,0.1852451860904694,-0.0968683660030365,0.03838568925857544,-0.04054248332977295,2,0.6410273345696212,0.2921333484028764,0.415956255344264,0.5750849639390787,-0.1972756683826447,-0.9803197383880615,-0.00748412637040019,-18.20750427246094,-43.08914947509766,21.33462524414062,2
1596231043.843062,100,0,103376.0394181667,2.530144487839036,-1.468612805418673,1.368589554453395,-0.4462587237358093,0.2713079154491425,-0.02068886533379555,-0.002786993980407715,0.05419230461120605,0.2245619297027588,2,0.6363684323266435,0.2911909743238981,0.4210199932287243,0.5770488387258547,-0.1997848451137543,-0.9796257615089417,-0.02048606984317303,-18.38510894775391,-43.42047119140625,20.42529296875,2
1596231043.865732,101,0,103376.0695171667,2.460001645448204,-1.392038689997951,1.366208693088393,-0.5226881504058838,0.1207139194011688,0.07770894467830658,-0.06155633926391602,-0.1153934001922607,-0.1332404613494873,2,0.6306003953221099,0.2903119593610622,0.4257104557383756,0.580373226759529,-0.1999277919530869,-0.9791448712348938,-0.03612421452999115,-18.70578002929688,-43.51673126220703,19.85882568359375,2
1596231043.905738,102,0,103376.0996161667,2.39756506587783,-1.326539880307531,1.361154532288974,-0.3172879815101624,0.2441006302833557,0.04143627732992172,0.1172813475131989,0.1233750581741333,-0.05205142498016357,2,0.6260240879498277,0.2879749072394487,0.4297122447866412,0.5835341242110489,-0.2019340544939041,-0.9781055450439453,-0.05032858997583389,-19.04902648925781,-43.74103546142578,18.9390869140625,2
1596231043.925955,103,0,103376.1297141667,2.358399515895075,-1.281904679695591,1.357611599439095,-0.3058164119720459,0.1078750565648079,0.06704897433519363,0.08360520005226135,-0.0006544589996337891,-0.08067846298217773,2,0.6222471712551622,0.2875251472065526,0.4333315512359561,0.5851168680171186,-0.2028070390224457,-0.9773620963096619,-0.06027549505233765,-19.04627990722656,-43.80746459960938,18.70343017578125,2
1596231043.966027,104,0,103376.1598131667,2.331741472807158,-1.249926194007054,1.352502179957862,-0.2042650580406189,0.6813765168190002,0.1704469174146652,0.1973255276679993,-0.01101046800613403,0.01150608062744141,2,0.6193664328793417,0.2867639922516374,0.4371017778465301,0.5857422656083311,-0.2055127620697021,-0.9762682914733887,-0.06830327212810516,-19.22500610351562,-44.13011169433594,18.05352783203125,2
1596231043.986089,105,0,103376.1899121667,2.316670706851591,-1.229541299513333,1.342654847397069,-0.1762415021657944,-0.5885704159736633,0.3394737839698792,0.04287415742874146,0.03904116153717041,-0.1499944925308228,2,0.6174308032684499,0.2844878364888642,0.4421761953010853,0.585086548966676,-0.2131263911724091,-0.9740884304046631,-0.07569174468517303,-19.42079925537109,-44.13359832763672,17.85726928710938,2
1596231044.022975,106,0,103376.2200111667,2.303785260763036,-1.230931985781751,1.331450433030481,-0.2774631381034851,-0.1341362148523331,0.261413961648941,-0.07820796966552734,0.02434027194976807,0.1779279708862305,2,0.6199268732401335,0.2760005331927811,0.4415892494230422,0.5869527073618312,-0.2235075682401657,-0.9714932441711426,-0.07902875542640686,-19.91913604736328,-44.14290618896484,17.50665283203125,2
1596231044.046359,107,0,103376.2501091667,2.283840085120378,-1.215539719687219,1.32465438439444,-0.1231983751058578,-0.029625304043293,0.08148834109306335,-0.2233287692070007,-0.01840794086456299,-0.1218550205230713,2,0.6194507383682795,0.2718523754829265,0.4426919354874086,0.5885585030682241,-0.2284496426582336,-0.9698597192764282,-0.08475413918495178,-20.19573974609375,-44.02742004394531,17.23269653320312,2
1596231044.085885,108,0,103376.2802081667,2.269097894554486,-1.195283454404953,1.322690134375604,-0.2110325247049332,0.2183189690113068,0.01133079268038273,-0.05863195657730103,0.09621709585189819,-0.06772118806838989,2,0.6170035590268723,0.2725349643946279,0.4452496453404226,0.5888839831701598,-0.2284582853317261,-0.9693792462348938,-0.09006260335445404,-20.31649780273438,-44.086669921875,17.18368530273438,2
1596231044.106541,109,0,103376.3103071667,2.261860492954544,-1.181699146795812,1.320020651067376,-0.0813743844628334,0.2487221211194992,0.09996715933084488,0.01887232065200806,-0.01986873149871826,0.06792712211608887,2,0.615001963588704,0.2733188046886073,0.4481682037761506,0.5884002591352813,-0.2296069413423538,-0.9687201976776123,-0.09413883090019226,-20.53272247314453,-44.24626159667969,16.98287963867188,2
1596231044.141995,110,0,103376.3404051667,2.244535192097062,-1.159523798650695,1.316965223091361,-0.1678161919116974,0.08749388158321381,-0.05742157995700836,-0.006125062704086304,-0.0192686915397644,-0.03814685344696045,2,0.612420067488888,0.2733985071943091,0.450864355207071,0.5889962121211176,-0.2301753908395767,-0.9679574966430664,-0.1003898307681084,-20.62095642089844,-44.03411102294922,16.84146118164062,2
1596231044.166732,111,0,103376.3705041667,2.235940794427991,-1.146361362213818,1.31523968472288,-0.05236818641424179,0.3234340846538544,0.1644063144922256,0.1174710392951965,0.07048499584197998,0.01703554391860962,2,0.6106318265887544,0.2740064606644743,0.4529182813574455,0.5889945737859044,-0.2303559929132462,-0.9675227403640747,-0.1040984615683556,-20.78865814208984,-44.148681640625,16.49453735351562,2
1596231044.20382,112,0,103376.4006031667,2.238463538761759,-1.138606543222419,1.310991556304841,-0.03842493891716003,0.2381620556116104,0.04683339968323708,-0.04455110430717468,-0.0003147125244140625,-0.0004390478134155273,2,0.6085325570001591,0.2754760849557403,0.4574018774531305,0.5870134508867513,-0.2332715392112732,-0.9664401412010193,-0.1076021045446396,-21.08099365234375,-44.23273468017578,16.18569946289062,2
1596231044.226989,113,0,103376.4307011667,2.233066607538084,-1.129077705584684,1.308978262295685,-0.06875224411487579,0.1029672920703888,0.08210476487874985,0.003682225942611694,0.02824175357818604,-0.06416493654251099,2,0.6070939506820944,0.2758824283406894,0.459366857601035,0.5867777986307062,-0.2339943200349808,-0.9659209847450256,-0.1106516420841217,-21.36831665039062,-43.98569488525391,15.99444580078125,2
1596231044.265176,114,0,103376.4608001667,2.233488287456545,-1.125242100373291,1.307038535049241,-0.004900315776467323,0.1641292572021484,0.03409722447395325,0.02158069610595703,0.04569023847579956,-0.05293101072311401,2,0.6061507041241702,0.2764118609770345,0.4612825359567949,0.5860004523716973,-0.2352585196495056,-0.9654170870780945,-0.11235561221838,-21.48663330078125,-44.06678771972656,15.91973876953125,2
1596231044.287116,115,0,103376.4908991667,2.23659841439845,-1.123358060973701,1.306238603230231,0.04251822829246521,0.1797777712345123,0.03982068598270416,0.05641919374465942,0.003425002098083496,-0.007449746131896973,2,0.6052833860751262,0.2776068700751776,0.4630228174931723,0.5849587389977533,-0.235742911696434,-0.9652082324028015,-0.1131328940391541,-21.80551910400391,-44.18061828613281,15.68234252929688,2
1596231044.322429,116,0,103376.5209981667,2.24457722743798,-1.126765225183995,1.306822006957844,0.1696880310773849,-0.0002842624671757221,-0.01945061609148979,0.03049010038375854,0.009271323680877686,-0.04030978679656982,2,0.6049625884451504,0.279243288855127,0.4641339067641777,0.5836295372857641,-0.2356180399656296,-0.9653606414794922,-0.1120869070291519,-21.80440521240234,-44.10237884521484,15.60513305664062,2
1596231044.347314,117,0,103376.5510961667,2.258365931584487,-1.144865335356786,1.305930712969354,0.07842937856912613,-0.2813107967376709,0.1305591911077499,0.01503750681877136,0.03723341226577759,-0.005564570426940918,2,0.6072404950693675,0.2778113592161821,0.4629580158649764,0.5828808384850839,-0.2383918762207031,-0.96512770652771,-0.1081596612930298,-21.85115051269531,-44.04335784912109,16.09640502929688,2
1596231044.384382,118,0,103376.5811951667,2.269810792718872,-1.163773548582623,1.304867300824166,0.05907081812620163,-0.2385807931423187,0.02583667822182178,0.01390290260314941,-0.01204538345336914,0.04499119520187378,2,0.6100338755114951,0.2753889717509486,0.4608818226791458,0.5827588023984811,-0.2413363605737686,-0.9648487567901611,-0.1040391698479652,-21.777587890625,-43.96648406982422,16.1859130859375,2
1596231044.40752,119,0,103376.6112941667,2.26371704039861,-1.162867050938987,1.302862471937187,-0.1725210100412369,-0.02398894354701042,0.07848942279815674,0.01632422208786011,-0.02025651931762695,0.04309141635894775,2,0.6106813414312935,0.2730489760222928,0.4600270316821766,0.5838561590329137,-0.2430171966552734,-0.9643199443817139,-0.1050251126289368,-21.58791351318359,-44.00230407714844,16.4093017578125,2
