loggingTime,loggingSample,identifierForVendor,motionTimestamp_sinceReboot,motionYaw,motionRoll,motionPitch,motionRotationRateX,motionRotationRateY,motionRotationRateZ,motionUserAccelerationX,motionUserAccelerationY,motionUserAccelerationZ,motionAttitudeReferenceFrame,motionQuaternionX,motionQuaternionY,motionQuaternionZ,motionQuaternionW,motionGravityX,motionGravityY,motionGravityZ,motionMagneticFieldX,motionMagneticFieldY,motionMagneticFieldZ,motionMagneticFieldCalibrationAccuracy
1596230844.37618,1,0,103176.568438875,-0.947529459018829,0.670476827436878,1.284134053869219,0.1266705095767975,-0.1164998188614845,-0.2225867956876755,-0.1329701542854309,-0.01463663578033447,-0.04170584678649902,2,0.623436981351372,-0.02355259651418035,-0.1697248555740342,0.7628662342609815,0.175690546631813,-0.9591929912567139,-0.2215432077646255,-8.01995849609375,-49.92156219482422,7.449615478515625,2
1596230844.406022,2,0,103176.598537875,-0.9666360627086084,0.688668650415581,1.2831330137837,0.01885164156556129,0.06373173743486404,-0.09573964029550552,0.09079468250274658,0.06498581171035767,-0.01752805709838867,2,0.6244805300252529,-0.0223172699758302,-0.1715801777319246,0.76163386339418,0.1803017854690552,-0.9589094519615173,-0.2190520167350769,-7.663780212402344,-49.74671173095703,7.7440185546875,2
1596230844.436155,3,0,103176.628636875,-0.9757778398174346,0.7013019672969776,1.283253312577648,0.09286634624004364,0.1251547634601593,-0.03315401822328568,0.01053431630134583,-0.002850711345672607,-0.02835202217102051,2,0.6254995689832891,-0.02039722096738361,-0.1710817934940188,0.7609632555479997,0.1829801052808762,-0.9589435458183289,-0.2166684865951538,-7.485069274902344,-49.88834381103516,7.66552734375,2
1596230844.46753,4,0,103176.658734875,-0.9835958261815432,0.7158815483709365,1.284310042015666,0.1311607360839844,0.5288952589035034,-0.1026953011751175,-0.07934591174125671,0.0586857795715332,0.003088235855102539,2,0.6269642286500144,-0.01758398540662803,-0.1692208079066544,0.7602439794879043,0.1854545474052429,-0.9592427015304565,-0.213213324546814,-7.550712585449219,-49.81200408935547,7.686553955078125,2
1596230844.496245,5,0,103176.688833875,-1.012419463713474,0.7545910698746791,1.285172503114739,0.2022269070148468,0.308602899312973,-0.1520516872406006,0.1776840090751648,-0.03538203239440918,-0.01570302248001099,2,0.630249770298097,-0.0121868791949194,-0.1677699958026381,0.7579510004970975,0.1929998844861984,-0.9594860672950745,-0.2052734196186066,-7.180831909179688,-49.88742828369141,7.9639892578125,2
1596230844.526591,6,0,103176.718932875,-1.014263951985292,0.7646130187866538,1.289742455137374,0.1458451598882675,0.2688500881195068,0.260022759437561,0.100089430809021,-0.005858123302459717,-0.07313013076782227,2,0.6323083251560931,-0.01024142054435695,-0.1640947736662124,0.7570693726628847,0.1920100450515747,-0.9607636332511902,-0.2001625895500183,-7.4073486328125,-49.77597045898438,7.958221435546875,2
1596230844.556557,7,0,103176.749030875,-1.014507943192482,0.7767901791668442,1.298909905801126,0.1990200579166412,0.5880951285362244,0.1327983886003494,-0.1481598019599915,0.08757549524307251,0.1408713459968567,2,0.6357449126867735,-0.008267953435909581,-0.1578812551053294,0.7555351880535709,0.188250944018364,-0.9632660150527954,-0.191520094871521,-7.84039306640625,-49.64171600341797,8.26104736328125,2
1596230844.586618,8,0,103176.779129875,-1.013571353255068,0.7950797389093776,1.30803745874243,0.2760194540023804,0.5863916873931885,0.3311745226383209,0.02958884835243225,-0.006476759910583496,-0.01263833045959473,2,0.6395673994985035,-0.003620904639760919,-0.1492401288080626,0.7541005702871417,0.1854371875524521,-0.96567702293396,-0.1818808615207672,-7.974937438964844,-49.91349029541016,8.3553466796875,2
1596230844.618296,9,0,103176.8092295,-1.012538737190888,0.8056486942352038,1.316876027617926,0.1385996788740158,0.1734244674444199,0.1606739163398743,0.2093292772769928,-0.04640871286392212,-0.1141568422317505,2,0.6426513906498503,-0.001791683581939346,-0.1430655938581363,0.7526805657829798,0.1811854690313339,-0.9679350852966309,-0.1739919632673264,-8.754493713378906,-49.68531799316406,8.759613037109375,2
1596230844.646761,10,0,103176.8393275,-1.012386239332542,0.8066837479444864,1.326523640050808,0.2138146609067917,-0.3021924793720245,-0.01763485744595528,-0.0746135413646698,0.01346677541732788,-0.08146083354949951,2,0.6452253773656248,-0.004067725084516832,-0.1400480065759096,0.7510353461079174,0.1746150404214859,-0.9703134894371033,-0.1673353314399719,-8.871925354003906,-49.61040496826172,8.722808837890625,2
1596230844.677237,11,0,103176.8694265,-1.075967132207073,0.8729215370298268,1.319761952453875,0.6887629628181458,0.8216133117675781,0.08159057796001434,0.09587103128433228,0.1152715682983398,-0.07685792446136475,2,0.6482157802913228,0.002141116674139298,-0.1443419692215171,0.7476477205423632,0.1903310865163803,-0.9686560034751892,-0.1596234291791916,-8.14874267578125,-49.42728424072266,9.445465087890625,2
1596230844.707059,12,0,103176.8995255,-1.051834185836861,0.8673126276397711,1.355234647055255,0.3173868656158447,0.4519065320491791,1.199379205703735,0.1184101998806,0.05789542198181152,-0.01770532131195068,2,0.6563624414664575,-0.002474584294596655,-0.1270608277586493,0.7436650088753907,0.163115382194519,-0.9768564105033875,-0.1383644491434097,-8.712326049804688,-49.24351501464844,9.980072021484375,2
1596230844.737157,13,0,103176.9296235,-1.060454357231297,0.8838422094210154,1.371586949218976,0.5077409744262695,0.08278777450323105,-0.3133591711521149,-0.2143609821796417,-0.1062788963317871,-0.1700881719589233,2,0.6612363890455079,-0.003964854823875319,-0.1201384030140135,0.7404845661179098,0.1530079394578934,-0.9802233576774597,-0.1255014389753342,-10.51338958740234,-48.77604675292969,10.565673828125,2
1596230844.767488,14,0,103176.9597225,-1.131416348846567,0.9567266029667056,1.374597051612815,0.2964053153991699,0.02121035754680634,0.1469741463661194,0.09525635838508606,0.08160680532455444,0.06446462869644165,2,0.6662093310839514,-0.001518520496973513,-0.1212556597227341,0.7358395331261947,0.1593285351991653,-0.9808145761489868,-0.1123256459832191,-10.45042419433594,-48.95635986328125,10.90786743164062,2
1596230844.79727,15,0,103176.9898215,-1.151760631876364,0.9675494137788571,1.389201032386146,0.4626980721950531,-0.7288875579833984,0.3513763248920441,0.05089423060417175,0.03470444679260254,-0.0829308032989502,2,0.6698458766477885,-0.008848389967615972,-0.1206888025389525,0.7325722730733411,0.1487216204404831,-0.9835568070411682,-0.1024564132094383,-10.49090576171875,-48.51329040527344,11.46929931640625,2
1596230844.827279,16,0,103177.0199205,-1.200979460001008,0.997722119839608,1.402333632745607,0.5808535218238831,-0.2760824859142303,0.05028317496180534,-0.1734093427658081,0.000157475471496582,0.01075780391693115,2,0.6739456310512889,-0.01848431582236515,-0.1244844615166828,0.7279828088538947,0.1408789902925491,-0.9858436584472656,-0.09091123193502426,-10.74185943603516,-48.61156463623047,12.03533935546875,2
1596230844.857569,17,0,103177.0500185,-1.279638062546755,1.072912237148804,1.410277142348313,0.34065181016922,0.08833984285593033,-0.04029019922018051,-0.2061684429645538,0.01607847213745117,0.1451155543327332,2,0.6792786585965706,-0.02038768064434021,-0.1250597156618971,0.72285877619784,0.1404259651899338,-0.987144410610199,-0.07632969319820404,-10.71839141845703,-48.65802001953125,13.14239501953125,2
1596230844.887583,18,0,103177.0801175,-1.352282094651634,1.14744923015815,1.41079134274744,0.4683604538440704,0.1340464651584625,-0.2805023789405823,-0.1500001847743988,0.01042437553405762,-0.08695083856582642,2,0.6833258156576328,-0.01843726513299379,-0.1256859584313178,0.7189775771094137,0.1452569663524628,-0.9872264862060547,-0.06545179337263107,-10.47731018066406,-48.45160675048828,13.41607666015625,2
1596230844.918674,19,0,103177.1102165,-1.459590021597459,1.247558251933595,1.407543064524399,0.46672722697258,-0.5506336688995361,-0.2870473861694336,0.130070835351944,0.05339717864990234,-0.1725919246673584,2,0.6883700594750606,-0.01827548528292697,-0.1308746679018116,0.7132211420788082,0.1541114747524261,-0.9867037534713745,-0.0516253374516964,-10.20044708251953,-48.17752075195312,14.35379028320312,2
1596230844.947923,20,0,103177.1403145,-1.565867208486647,1.338203205283791,1.407702886031597,0.646269679069519,-0.2661100924015045,-0.005498355254530907,0.1447009146213531,-0.00343024730682373,0.04348236322402954,2,0.6933716120520879,-0.02285854275710344,-0.1372429902285197,0.7070201264327038,0.1579978913068771,-0.9867297410964966,-0.03742659091949463,-9.685127258300781,-47.76905059814453,15.47775268554688,2
1596230844.977818,21,0,103177.1704135,-1.668017530407431,1.431791897966524,1.410654412246994,0.3568776845932007,-0.3299590349197388,-0.09597469866275787,-0.09519508481025696,-0.02806496620178223,0.2430271506309509,2,0.698748959478603,-0.02651156593054493,-0.1396031356022966,0.7011119337673445,0.1579199433326721,-0.9872046709060669,-0.02209405787289143,-9.660408020019531,-47.68911743164062,15.96868896484375,2
1596230845.007927,22,0,103177.2005125,-1.711858472262222,1.465474530095799,1.405991157003794,0.1770966202020645,-0.3315038681030273,-0.1759560108184814,-0.03302231431007385,-0.003942370414733887,0.08245849609375,2,0.7004068405882022,-0.02840315080222444,-0.1447865945091933,0.6983266655155634,0.1631496846675873,-0.9864503145217896,-0.01724703796207905,-9.040672302246094,-47.50872802734375,16.53115844726562,2
1596230845.03809,23,0,103177.2306105,-1.746847199039418,1.492398066620388,1.403636052848738,0.158471092581749,-0.1789680868387222,-0.01280422881245613,0.1298228204250336,0.04403358697891235,0.04348576068878174,2,0.7018245877005913,-0.03044509321725689,-0.1483662363879566,0.6960622306624679,0.1658707857131958,-0.9860612154006958,-0.01303068920969963,-8.806961059570312,-47.59503936767578,16.71527099609375,2
1596230845.068196,24,0,103177.2607095,-1.774545737195441,1.508163357778213,1.405448027347102,0.2357082366943359,-0.671302318572998,0.03677719831466675,0.0738709568977356,-0.01907825469970703,-0.1770075559616089,2,0.7025669520850435,-0.03533383993016467,-0.1518290683110164,0.6943335974105774,0.1642732322216034,-0.9863610863685608,-0.01030239555984735,-8.608673095703125,-47.58665466308594,17.16720581054688,2
1596230845.098566,25,0,103177.2908085,-1.824527200018011,1.534630079971839,1.406384993529439,0.2081822454929352,-0.7329725623130798,0.06792323291301727,-0.06402048468589783,0.03831338882446289,0.1635490655899048,2,0.7036324840845645,-0.04407149482756267,-0.159509823550573,0.6910249480956763,0.1635635793209076,-0.9865148663520813,-0.00591806136071682,-8.621597290039062,-47.22364044189453,17.5609130859375,2
1596230845.128294,26,0,103177.3209065,-1.838232660682245,1.527684488963934,1.407461873849204,0.03147369250655174,-0.6031938195228577,-0.160291463136673,-0.2680070698261261,0.001458406448364258,0.215450644493103,2,0.7027276492649722,-0.05166987649531521,-0.1663105288355184,0.6898149440008896,0.1624567061662674,-0.9866905808448792,-0.00700814975425601,-8.030242919921875,-47.19816589355469,17.7105712890625,2
1596230845.158502,27,0,103177.3510055,-1.827429065555871,1.499854090330187,1.397560740657066,-0.1638982146978378,-0.4073302447795868,-0.3252541422843933,-0.08831632137298584,-0.01040053367614746,0.05230581760406494,2,0.7006992962751742,-0.053958081423431,-0.1757736407628614,0.6893566134919341,0.1719362139701843,-0.9850322008132935,-0.01221804320812225,-7.630989074707031,-47.08535003662109,18.04400634765625,2
1596230845.188529,28,0,103177.3811045,-1.81866385638662,1.486002372026964,1.390158316009104,-0.08969245851039886,0.07618403434753418,-0.2467447370290756,-0.109908252954483,0.02639484405517578,0.08305478096008301,2,0.6997000760235661,-0.0530284657892218,-0.1801612170826428,0.6893110040556419,0.1790114194154739,-0.9837292432785034,-0.01521557103842497,-6.841041564941406,-47.51189422607422,17.59970092773438,2
1596230845.218775,29,0,103177.4112025,-1.793379631157787,1.466667416556307,1.379610821328557,-0.2465595602989197,0.2477242946624756,-0.3586413860321045,0.03956416249275208,-0.001048564910888672,0.09232187271118164,2,0.6985027612271829,-0.04709916182338358,-0.181845113106007,0.6905127657183113,0.1889934837818146,-0.9817796349525452,-0.01975112222135067,-6.734390258789062,-47.61538696289062,17.91677856445312,2
1596230845.24865,30,0,103177.4413015,-1.748174399189097,1.432813369041757,1.372482118976907,-0.4332495331764221,0.4832984805107117,-0.01793789491057396,0.1755416095256805,0.05185925960540771,0.228981614112854,2,0.6962830463751647,-0.04050418150963281,-0.1804759985456721,0.6935254564115028,0.1951434016227722,-0.9804000854492188,-0.02709866128861904,-6.238777160644531,-47.715576171875,17.206298828125,2
1596230845.278897,31,0,103177.4714005,-1.660762275409263,1.36602664579457,1.372391280370264,-0.7622904181480408,0.6067111492156982,0.1843561232089996,0.2117090821266174,-0.0837482213973999,0.413512110710144,2,0.6919859356445803,-0.03340153474167226,-0.1732335517708259,0.7000212118357775,0.1929868012666702,-0.9803822040557861,-0.04007960483431816,-6.430313110351562,-47.89617156982422,16.74859619140625,2
1596230845.308855,32,0,103177.5014985,-1.52550303355923,1.252103785863548,1.377220656193053,-0.6513182520866394,0.7763246297836304,0.6015055775642395,0.08801531791687012,0.0115959644317627,-0.2559266686439514,2,0.6848642193672778,-0.02870553974509929,-0.163113405458351,0.7095991566818461,0.18268221616745,-0.9813226461410522,-0.06027398630976677,-7.473442077636719,-48.28115081787109,15.36825561523438,2
1596230845.339102,33,0,103177.5315975,-1.424538987644042,1.179539420589964,1.384635402799132,-0.4669586420059204,0.6913387179374695,0.001399293076246977,-0.4612634479999542,0.1290424466133118,-0.1982041597366333,2,0.6813183221896264,-0.02266652958181573,-0.1493933190839301,0.716221443341558,0.1711003035306931,-0.9827220439910889,-0.07058314234018326,-8.299591064453125,-48.40345001220703,14.681640625,2
1596230845.369257,34,0,103177.5616965,-1.390800900629014,1.168951886033309,1.36405178594397,-0.5308002233505249,0.9637566208839417,-0.8672324419021606,-0.72243332862854,-0.2819668054580688,0.04887545108795166,2,0.6780808575689417,-0.007958046656386247,-0.14775574712065,0.7199382333746737,0.1889220774173737,-0.9787043929100037,-0.08028604090213776,-8.193405151367188,-48.587646484375,13.68533325195312,2
1596230845.399478,35,0,103177.5917945,-1.361431913866727,1.180537005937118,1.321476068081107,-0.9417030215263367,1.806309103965759,-1.800716519355774,-1.025304198265076,-0.1222437024116516,0.2874066829681396,2,0.6727855303629576,0.02062441806184728,-0.1473708863859421,0.7247177607676147,0.2281917631626129,-0.96908038854599,-0.09386852383613586,-6.961860656738281,-49.08541870117188,12.23379516601562,2
1596230845.42927,36,0,103177.6218935,-1.357919164579228,1.236217052143201,1.242541607421189,-1.111098051071167,1.884766697883606,-2.932620525360107,-0.7638390064239502,-0.2148661613464355,0.4264289140701294,2,0.6650812773234538,0.06880996698416318,-0.153657490269532,0.727544749113846,0.3045141100883484,-0.946606457233429,-0.1058641672134399,-5.183349609375,-49.42194366455078,11.20303344726562,2
1596230845.459472,37,0,103177.6519925,-1.330042645313663,1.295003673572392,1.130457575625118,-1.392151355743408,3.302534341812134,-3.609705448150635,-0.1965675950050354,-1.038646697998047,-0.04447120428085327,2,0.6504888988015537,0.1372179547481461,-0.161394925245701,0.7293743895288665,0.4101377427577972,-0.9046072959899902,-0.1160708516836166,0.05756378173828125,-49.71384429931641,8.856903076171875,2
1596230845.489508,38,0,103177.6820915,-1.200592021543091,1.25819602022239,1.011947936135792,-4.163194179534912,4.187734603881836,-3.30223822593689,-1.063985466957092,-1.366843223571777,0.5490291714668274,2,0.6141044149532566,0.2033395768566764,-0.1641926318017045,0.7446941972120997,0.5045144557952881,-0.8478662967681885,-0.1630575656890869,2.839836120605469,-49.875244140625,6.51190185546875,2
1596230845.519805,39,0,103177.7121895,-1.060044122178097,1.300719763397521,0.8698399982080539,-4.316459655761719,6.36233377456665,-3.996424436569214,-1.499712228775024,-0.3709752559661865,1.03111720085144,2,0.5669216893058372,0.3042399594473532,-0.1447877499661195,0.7517142210939385,0.6215696334838867,-0.7642257809638977,-0.1720756888389587,9.09796142578125,-49.00048065185547,0.4136962890625,2
1596230845.549699,40,0,103177.7422885,-0.894720750136615,1.430744144517942,0.7079456064303211,-5.178895950317383,9.802600860595703,-4.875463485717773,-0.4002819061279297,0.07699912786483765,1.237972021102905,2,0.5020452565185898,0.4415037167063655,-0.1013148561208603,0.7367226203997889,0.7522608637809753,-0.650274395942688,-0.1060500591993332,13.37200927734375,-47.74929809570312,-1.883148193359375,2
1596230845.579859,41,0,103177.7723875,-0.7100446346894728,1.621702436688425,0.5565160338507509,-5.311267375946045,9.216042518615723,-4.527613639831543,0.1238019466400146,0.5145423412322998,0.8815100193023682,2,0.4197048661990335,0.5877505337254203,-0.0435597091787405,0.6902894191812924,0.8480004072189331,-0.528231143951416,0.04320573061704636,23.01123809814453,-43.24366760253906,-2.943389892578125,2
1596230845.609905,42,0,103177.8024855,-0.5165725605398137,1.743333482577093,0.4576857835609755,-5.008089542388916,4.427517890930176,-3.198626279830933,0.6701333522796631,0.9527695178985596,0.4519344568252563,2,0.3315529757790181,0.6834316484645379,0.007779468738071976,0.6503331621324441,0.8837578892707825,-0.4418732523918152,0.1540123820304871,27.14425659179688,-40.619873046875,-2.642242431640625,2
1596230845.640075,43,0,103177.832584375,-0.3544752497125198,1.744962010587785,0.4149208205668199,-4.10265064239502,0.8896139860153198,-1.352458238601685,0.6568938493728638,0.04789572954177856,-0.03464782238006592,2,0.2624986076470598,0.7144129546345013,0.04436588684989931,0.6471012268533988,0.9013030529022217,-0.4031174778938293,0.1585827767848969,31.72441101074219,-36.34064483642578,-5.197021484375,2
1596230845.670128,44,0,103177.862683375,-0.2144010011480237,1.673240248698673,0.4169554743135418,-4.632460117340088,-1.700488328933716,0.120878592133522,-0.05187273025512695,-0.1028358936309814,0.2867429256439209,2,0.2155810270214345,0.7073022753160573,0.08263753700723712,0.6681460166181868,0.9095322489738464,-0.4049786329269409,0.09350337833166122,32.71241760253906,-34.93310546875,-7.596405029296875,2
1596230845.700265,45,0,103177.892781375,-0.05616152825817394,1.550006977076899,0.4435151306858955,-4.855527877807617,-1.679536700248718,1.323005557060242,-0.2399306893348694,0.6217688322067261,0.5241013765335083,2,0.1762354574803464,0.6779032126059346,0.1342710366642827,0.7009702152798334,0.9030532836914062,-0.4291171431541443,-0.01877659559249878,31.57980346679688,-32.69720458984375,-15.588134765625,2
1596230845.730601,46,0,103177.922880375,0.0944812588724145,1.443168563794598,0.4957386705705088,-3.562842845916748,-0.9353650808334351,2.693281412124634,-0.1659815311431885,0.9997379779815674,0.1973767876625061,2,0.1537442382492246,0.6483696287354207,0.1962536607569279,0.7193495665170155,0.8724631071090698,-0.4756815433502197,-0.1119590699672699,30.1207275390625,-31.99338531494141,-19.29248046875,2
1596230845.760497,47,0,103177.952979375,0.20332983250377,1.388669679724136,0.572459167015362,-1.918127775192261,1.599125623703003,3.191447973251343,-0.3022814989089966,0.7025288939476013,0.1719179153442383,2,0.1535513743691437,0.6326920478426924,0.2545473260222747,0.7150722453565633,0.8266688585281372,-0.5417007803916931,-0.1522454917430878,26.269287109375,-31.96883392333984,-24.03854370117188,2
1596230845.790545,48,0,103177.983077375,0.2831953063592883,1.438574704752413,0.6562362836952002,-1.746253967285156,4.04865550994873,2.929040908813477,-0.5747395753860474,0.09782075881958008,0.2486516237258911,2,0.1519840321245268,0.6516702665440338,0.3106980697099733,0.675050592850116,0.7853785157203674,-0.6101391911506653,-0.1044534370303154,25.04679107666016,-32.71826171875,-24.28982543945312,2
1596230845.820782,49,0,103178.013176375,0.3674624849337338,1.495462338946958,0.7275128564598828,-2.074457883834839,3.08832311630249,2.166247606277466,-0.1683865785598755,-0.4350966215133667,0.4592498540878296,2,0.1403818919842365,0.6724497521159658,0.3630511028499129,0.6295219700125529,0.7447121739387512,-0.6650142073631287,-0.05620850995182991,24.95943450927734,-34.17133331298828,-22.85891723632812,2
1596230845.850644,50,0,103178.043275375,0.4560388101019103,1.517365015453102,0.7852176158659406,-2.043145895004272,2.536810874938965,2.304895401000977,0.4516233801841736,-0.2451398372650146,0.8306494951248169,2,0.1268007647158964,0.681935718917119,0.4079737898492748,0.5936687537152227,0.7062250971794128,-0.7069790959358215,-0.03777048364281654,24.91471099853516,-34.47161865234375,-22.27737426757812,2
1596230845.880896,51,0,103178.073373375,0.5647127226519107,1.494426756909819,0.8726712042155605,-1.069045543670654,1.326157212257385,3.119704484939575,0.07119756937026978,0.2639147043228149,-0.1532098054885864,2,0.1261438979701784,0.6779137585362909,0.4610801769994224,0.5585029566015141,0.6409087777137756,-0.7660486698150635,-0.04904130473732948,23.77192687988281,-35.00508117675781,-22.87347412109375,2
1596230845.91079,52,0,103178.103472375,0.5359169988815859,1.664146209697146,0.890600929478808,-1.071041226387024,9.231104850769043,-2.476887941360474,1.681027054786682,0.3914088606834412,1.955018758773804,2,0.1030206958834235,0.7202083577229265,0.467977677042105,0.5016806093434583,0.6262063384056091,-0.7774498462677002,0.0586266852915287,25.69997406005859,-36.09105682373047,-18.84652709960938,2
1596230845.941038,53,0,103178.133571375,0.6625969617967167,1.646452901671201,0.8290439516874095,-0.1081442758440971,-1.097414016723633,-0.9670637249946594,1.062696933746338,1.159957647323608,-1.237417459487915,2,0.04059128781446705,0.7237983415673293,0.4817045401582106,0.4923707487468583,0.6736482381820679,-0.7372857928276062,0.05106338486075401,28.72592163085938,-33.63294982910156,-18.22406005859375,2
1596230845.971088,54,0,103178.163669375,0.5964794406096471,1.650925176371962,0.8433146934884795,0.7958574295043945,-2.807922840118408,1.856809258460999,0.5314306020736694,0.2222061157226562,-0.2406035661697388,2,0.06830512138883699,0.7224599521380188,0.469313161032807,0.5031213672159095,0.6628571152687073,-0.7468514442443848,0.05322794243693352,28.48031616210938,-33.67010498046875,-18.93023681640625,2
1596230846.001209,55,0,103178.193768375,0.5833488989735508,1.592501943230474,0.920271379423082,0.2738505899906158,-1.345379233360291,2.828622817993164,-0.2798457741737366,-0.5959891080856323,0.3277866840362549,2,0.1133093832760317,0.7026613475375643,0.4841854612510361,0.5089127537643726,0.6054611206054688,-0.7957659959793091,0.01314397156238556,25.92578125,-34.95444488525391,-19.87149047851562,2
1596230846.031252,56,0,103178.223867375,0.5581196679083177,1.575525007959695,0.9825482093026211,-0.01623380929231644,-0.2683747708797455,1.110236167907715,-1.130305528640747,-0.339022696018219,0.367687463760376,2,0.1477696806556306,0.6924421268771419,0.4927622731298219,0.5058391175516286,0.5548979640007019,-0.8319140672683716,0.002623955253511667,21.240234375,-37.62740325927734,-21.0970458984375,2
1596230846.061348,57,0,103178.253965375,0.5832834124270795,1.593252065893371,0.9883921730344724,-0.263582170009613,2.20980978012085,-0.5893043875694275,-0.8566021323204041,0.2151994109153748,0.1620723009109497,2,0.1366248791715155,0.6982183201587431,0.5017854505456191,0.4919715651857151,0.549894392490387,-0.8351426720619202,0.01235036086291075,20.93031311035156,-37.94419860839844,-21.21383666992188,2
1596230846.091383,58,0,103178.284064375,0.57296838421591,1.669727675143483,0.9639259712219588,0.3041256070137024,2.17767858505249,-0.7312735319137573,-0.1675511002540588,-0.02232766151428223,0.3583648204803467,2,0.1128775023869002,0.7179295873464524,0.4976432238029432,0.4734835613906711,0.5675102472305298,-0.821436882019043,0.05632844567298889,23.43870544433594,-37.32933044433594,-19.07598876953125,2
1596230846.121752,59,0,103178.314163375,0.5714165962176008,1.719644242928331,0.9547286483356677,0.03482894226908684,0.5188149213790894,0.2248921394348145,0.6241189241409302,-0.540406346321106,-0.3775628805160522,2,0.09798182806740874,0.7302364980952324,0.4973758790464987,0.4580080651836779,0.5714408159255981,-0.8161569833755493,0.08569156378507614,24.71692657470703,-37.06009674072266,-17.87576293945312,2
1596230846.151795,60,0,103178.344261375,0.5581613815485869,1.715525509878798,0.9768328548922356,0.1465847343206406,-1.075313568115234,1.092238187789917,0.1814169883728027,-0.243023693561554,-0.4017238616943359,2,0.1110615060236012,0.7266518585444565,0.5003092543658613,0.4575290823335085,0.553798496723175,-0.8287290334701538,0.08071516454219818,24.45689392089844,-37.48177337646484,-17.59756469726562,2
1596230846.181821,61,0,103178.374360375,0.54616971636647,1.693718215497709,1.001479734173224,0.03841931745409966,-0.8691165447235107,0.3299725949764252,-0.5617218017578125,-0.188647985458374,0.0278010368347168,2,0.1289345253208342,0.7186260754407756,0.5030492255501438,0.4624866199963077,0.534989058971405,-0.8422695398330688,0.06609509885311127,23.33747100830078,-38.06864166259766,-17.99557495117188,2
1596230846.212083,62,0,103178.404459375,0.5589903956022203,1.674696738936968,0.989548960803571,-0.3814406394958496,0.3414512276649475,-1.090791702270508,-0.303597092628479,-0.06185102462768555,0.2141847610473633,2,0.1251755686462903,0.7161032695899708,0.5015817211841749,0.4689804615736496,0.5461053252220154,-0.8357784152030945,0.05694563314318657,22.41171264648438,-38.19759368896484,-18.67294311523438,2
1596230846.24203,63,0,103178.434557375,0.579619364451737,1.66976775224343,0.9558278618696093,-0.1602814048528671,0.06977221369743347,-0.8097644448280334,0.3901364207267761,-0.1134324073791504,-0.189334511756897,2,0.1077730842852354,0.7189494343962086,0.4970246636963789,0.4737752469047462,0.5741091370582581,-0.8167916536331177,0.05700665339827538,23.24187469482422,-37.44905853271484,-18.6990966796875,2
1596230846.27202,64,0,103178.464656375,0.5901065482788699,1.644966024645997,0.9554310043557959,-0.2474803924560547,-0.9369439482688904,0.5974907875061035,0.2127120494842529,-0.1269853115081787,-0.1400876045227051,2,0.110053717398659,0.7136357857621093,0.4980684864547315,0.4801456398589349,0.5756696462631226,-0.8165625929832458,0.042775709182024,24.19010925292969,-36.65370178222656,-19.03570556640625,2
1596230846.30215,65,0,103178.494755375,0.6012593049586513,1.601846972656798,0.9727585763265262,-0.3050331473350525,-1.175853610038757,0.2347337454557419,-0.3676661849021912,-0.09910190105438232,0.03153705596923828,2,0.1228001661089349,0.7026092828728904,0.5027718818999907,0.4883446647588542,0.5627500414848328,-0.8264420032501221,0.01747937127947807,23.46232604980469,-36.71121978759766,-19.58856201171875,2
1596230846.335583,66,0,103178.524853375,0.6222872115148181,1.557062124004287,0.9596873546025321,-0.4338049590587616,-0.5675015449523926,-1.069839835166931,-0.3481185436248779,0.01633656024932861,0.03365540504455566,2,0.1221737942800473,0.6936378809318372,0.5019596166507715,0.5019726652180047,0.5737218856811523,-0.8190122246742249,-0.007880108430981636,22.36825561523438,-36.70377349853516,-21.25033569335938,2
1596230846.362373,67,0,103178.554952375,0.6291485830439956,1.539610398409258,0.9234433572701812,0.1870221495628357,-0.2155730128288269,-1.031776070594788,-0.1296549439430237,-0.07720059156417847,0.1149508357048035,2,0.1113860724294669,0.6915134936259751,0.4937515641572184,0.5153750995052997,0.6027835607528687,-0.7976829409599304,-0.01880446262657642,23.38813781738281,-35.28305053710938,-22.09170532226562,2
1596230846.392489,68,0,103178.585051375,0.6277197899306486,1.529788521822232,0.9051795139955204,-0.2780781388282776,-0.2204623073339462,-0.3773998022079468,-0.1707035303115845,-0.0781095027923584,0.5517135262489319,2,0.1078170299342283,0.6897223867333633,0.4883287353533029,0.5236348276300836,0.6170250177383423,-0.7865360379219055,-0.02531703375279903,23.89552307128906,-34.90484619140625,-22.24810791015625,2
1596230846.42275,69,0,103178.615149375,0.6393796188982011,1.547766949065717,0.8857896113495219,-0.3090691566467285,1.618050575256348,-0.7636572122573853,0.8539429903030396,0.19684898853302,0.6186683773994446,2,0.09251743704507093,0.6958132488766324,0.4874311825616146,0.5193218272068175,0.632510244846344,-0.7744147777557373,-0.01456889323890209,24.78009033203125,-34.39280700683594,-21.77542114257812,2
1596230846.452762,70,0,103178.645248375,0.6585449467922631,1.538091583394311,0.8847795303618391,-0.1784234046936035,-1.317660808563232,0.9375088214874268,0.5058201551437378,0.4081909656524658,0.2883955240249634,2,0.08786757488403812,0.6942064273126907,0.4917140929367579,0.5182411139804283,0.6331211924552917,-0.7737753391265869,-0.02071345038712025,25.69886779785156,-33.81358337402344,-21.54953002929688,2
1596230846.485025,71,0,103178.675347375,0.6388911962434572,1.501027361506652,0.9258811328305353,0.9081854224205017,-2.101177215576172,1.281710028648376,-0.06028825044631958,0.324235200881958,0.5095101594924927,2,0.1184429341780097,0.6819223980871091,0.4946617760476713,0.5256069560446092,0.5996679067611694,-0.7991507649421692,-0.04190623015165329,23.08015441894531,-35.17391204833984,-23.03536987304688,2
1596230846.512961,72,0,103178.705445375,0.5807058955413092,1.463577716956277,0.949483899984026,1.617382645606995,-3.660124778747559,0.1064792424440384,-0.3157500624656677,0.1407294273376465,0.5234017968177795,2,0.1557012130232051,0.6667914033370665,0.4820956518079823,0.5465619505858517,0.5787598490715027,-0.8131151795387268,-0.06229271367192268,21.36212921142578,-36.25633239746094,-23.3499755859375,2
1596230846.542966,73,0,103178.735544375,0.4664669877234932,1.409884921976805,0.9579053670326912,2.741733312606812,-6.059504985809326,0.03421246260404587,0.08579909801483154,0.04976797103881836,0.3999350666999817,2,0.2085875523456146,0.6406323514850634,0.4467686357759649,0.5886247094765573,0.5678033232688904,-0.8179884552955627,-0.0921628475189209,16.90592956542969,-38.24320220947266,-24.07821655273438,2
1596230846.573029,74,0,103178.765642375,0.2898580183619983,1.349175711353559,0.9742196326504311,4.039158344268799,-7.406740665435791,-0.4630332291126251,0.6170615553855896,0.1231813430786133,0.4230133891105652,2,0.2820056006741302,0.5989377772172806,0.3889526444758916,0.6406731877785946,0.5480731129646301,-0.8272637128829956,-0.1234927624464035,13.74470520019531,-39.78497314453125,-24.47998046875,2
1596230846.60315,75,0,103178.795741375,0.0383606808695774,1.303254757211085,0.9805251530229001,4.905083179473877,-9.583003997802734,-1.249622941017151,0.7698619961738586,0.1687332391738892,0.7439822554588318,2,0.3640472977254509,0.5421251127229212,0.2989668018648716,0.6958367207719397,0.5367850065231323,-0.8307898044586182,-0.147139847278595,7.244842529296875,-43.01789093017578,-21.535400390625,2
1596230846.634215,76,0,103178.8258404167,-0.2396580066324059,1.242212614422246,0.9820165123552121,4.633138179779053,-9.057639122009277,-1.636325716972351,-0.08857113122940063,-0.03095740079879761,0.8623718023300171,2,0.4420503785614221,0.4636652795775789,0.1866929166915741,0.7448165516350599,0.5256357789039612,-0.8316189050674438,-0.1792119443416595,4.485160827636719,-45.15325164794922,-19.25830078125,2
1596230846.663349,77,0,103178.8559384167,-0.4842276619458656,1.217718017998143,0.9724654061144161,3.638188362121582,-5.890963077545166,-1.905519127845764,-0.3166818618774414,-0.002040743827819824,0.6763917803764343,2,0.4933762804370411,0.3989924097001448,0.08559060333085314,0.7681529553004247,0.5285176634788513,-0.8262768983840942,-0.1947697997093201,2.112480163574219,-47.87760162353516,-12.94882202148438,2
1596230846.693453,78,0,103178.8860374167,-0.6804223478343487,1.221979215129062,0.9581355188514424,3.049371957778931,-4.812466144561768,-1.561352729797363,-0.2661057710647583,-0.2996156215667725,0.08279156684875488,2,0.5257955027057575,0.3539316607943418,0.006734432628463877,0.7734506721814388,0.5404154658317566,-0.8181208372116089,-0.1965429335832596,2.305000305175781,-48.35927581787109,-10.40838623046875,2
1596230846.723819,79,0,103178.9161364167,-0.8443823993252642,1.219341540589575,0.944239646886868,2.619521379470825,-4.276992797851562,-1.447447538375854,-0.1876158118247986,-0.2055467963218689,0.02420365810394287,2,0.5490643429274441,0.3124055457170591,-0.0616489875598874,0.7727421296371997,0.5505163669586182,-0.8100513219833374,-0.201862245798111,3.665260314941406,-49.16345977783203,-5.7515869140625,2
1596230846.753683,80,0,103178.9462344167,-0.9868171463005405,1.21320296226939,0.9371329466970117,2.521228075027466,-3.580323934555054,-0.8790336847305298,-0.3117513656616211,-0.1214127540588379,0.1477658748626709,2,0.5676850431553045,0.2722312939962472,-0.1204445210598446,0.7675394799546349,0.5546456575393677,-0.8058638572692871,-0.2072476297616959,4.706443786621094,-49.441162109375,-3.82159423828125,2
1596230846.784367,81,0,103178.9763334167,-1.110024456463843,1.217054632667006,0.9491293483572055,2.248456478118896,-2.923164367675781,-0.04179329425096512,-0.3648918271064758,-0.1452766060829163,0.2256694436073303,2,0.586594868779459,0.2345919324261519,-0.1625713005154693,0.7579205271242733,0.5463310480117798,-0.8129087686538696,-0.2017461657524109,5.856613159179688,-49.51405334472656,-0.07513427734375,2
1596230846.813875,82,0,103179.0064324167,-1.209495270864291,1.216019303794313,0.9786495527252675,1.987032651901245,-2.577158689498901,0.4874762296676636,-0.4670112729072571,-0.1560108661651611,0.1987826228141785,2,0.6040376823969228,0.1954333741714885,-0.1910209158530545,0.7486355027589802,0.5233843922615051,-0.8297443985939026,-0.1938885450363159,5.829803466796875,-49.37828063964844,3.0743408203125,2
1596230846.844001,83,0,103179.0365304167,-1.293735696133031,1.219638386723655,1.016521185635658,1.74014949798584,-1.773853063583374,0.8506122827529907,-0.558359682559967,-0.1461921334266663,0.2220210433006287,2,0.6198833414513997,0.1588089449434835,-0.2091928803589133,0.7394339518474421,0.4942078292369843,-0.8502821922302246,-0.181048721075058,5.458114624023438,-49.84522247314453,4.4444580078125,2
1596230846.874032,84,0,103179.0666294167,-1.352361458106462,1.226660088270754,1.065076689690714,1.145373940467834,-1.33928918838501,1.596099734306335,-0.4720525741577148,-0.3097110390663147,0.2424555420875549,2,0.6341640187023019,0.1269466619304508,-0.2129478730033129,0.7323752987760472,0.4560329616069794,-0.8748260736465454,-0.1634410917758942,3.66265869140625,-49.60774230957031,7.252716064453125,2
1596230846.904226,85,0,103179.0967284167,-1.34949464309595,1.184050335137409,1.136837369985581,0.7580937147140503,-1.281632304191589,2.705773830413818,-0.4923897981643677,-0.4125243425369263,0.1170694828033447,2,0.6425946195420886,0.08818854920287955,-0.2023020153872403,0.7337360686095403,0.3894106149673462,-0.9073082804679871,-0.1585898697376251,2.113800048828125,-49.74310302734375,7.9356689453125,2
1596230846.934522,86,0,103179.1268264167,-1.370012521981802,1.19267073636593,1.207941445228935,1.167106747627258,0.8644959330558777,1.041206836700439,-0.3653195202350616,-0.3209373950958252,0.3887913227081299,2,0.6563519749396591,0.06068827885859693,-0.1838681354507402,0.7291854277821387,0.3298704326152802,-0.9348872900009155,-0.1310380399227142,-1.854324340820312,-49.68765258789062,9.5159912109375,2
1596230846.964448,87,0,103179.1569254167,-1.386872956455712,1.241462962550336,1.216323598760029,-0.01060217618942261,0.7926287651062012,-0.01415712013840675,-0.3279827833175659,-0.3521650433540344,-0.5369880795478821,2,0.6625471740631982,0.07002676965923181,-0.1711473141997554,0.7258346710058919,0.3284420669078827,-0.9378296136856079,-0.1122549846768379,-2.559425354003906,-49.64079284667969,10.2625732421875,2
1596230846.994369,88,0,103179.1870244167,-1.435256985757081,1.311742145698658,1.233021205456525,0.8753348588943481,0.466902107000351,0.7075868844985962,0.1189301609992981,0.3435497879981995,-0.09323251247406006,2,0.6724197608005215,0.07352824477074454,-0.15956909812802,0.7190151358233055,0.3203306794166565,-0.9434943199157715,-0.08489052206277847,-3.456901550292969,-49.49057769775391,11.10003662109375,2
1596230847.027238,89,0,103179.2171224167,-1.472779687840325,1.352610457915683,1.260789688580632,0.6119734048843384,-0.1893616318702698,0.7923305630683899,-0.04780638217926025,0.1347505450248718,0.577180802822113,2,0.6801812667834535,0.06585217163539439,-0.1497554148607701,0.714555833022589,0.2978317737579346,-0.95233154296875,-0.06603386998176575,-4.073417663574219,-49.41664123535156,11.59246826171875,2
1596230847.054548,90,0,103179.2472214167,-1.536479337909572,1.380046354245984,1.282719847299344,0.5072778463363647,-1.434711813926697,0.3140021860599518,-0.3345930576324463,-0.634441614151001,0.02425670623779297,2,0.6862469802831198,0.04617738414569958,-0.155535145990603,0.7090425005526535,0.2789545059204102,-0.9587921500205994,-0.0538654625415802,-5.217269897460938,-49.00570678710938,12.80657958984375,2
1596230847.085184,91,0,103179.2773204167,-1.562040749352144,1.392604008116691,1.290119382364119,0.3927280902862549,0.4475697576999664,0.1956925690174103,-0.07031208276748657,0.08860999345779419,0.1409767866134644,2,0.6884120780401718,0.03923164074339586,-0.157721769899882,0.706875677648758,0.2726189196109772,-0.9608681201934814,-0.04909937828779221,-5.064674377441406,-48.90519714355469,13.50274658203125,2
1596230847.114788,92,0,103179.3074184167,-1.595206234697737,1.438699473436416,1.300749559134008,0.2615397870540619,0.3487434089183807,0.3225648403167725,-0.1603904366493225,0.2049738168716431,0.2147903442382812,2,0.6934039926052473,0.04027393766482129,-0.1498217735379665,0.7036491402196654,0.2644514739513397,-0.9637584090232849,-0.03513782471418381,-5.648887634277344,-48.37995147705078,14.14239501953125,2
1596230847.146889,93,0,103179.3375174167,-1.615605337774824,1.465381604449496,1.304811429135094,-0.0134338615462184,0.1424585729837418,-0.02505012415349483,0.07173705101013184,-0.2440544962882996,0.2864308953285217,2,0.6960457329138096,0.04112612953135802,-0.1463133667183646,0.7017273706074549,0.2614002525806427,-0.9648340940475464,-0.02765795774757862,-6.169303894042969,-48.39836120605469,14.20535278320312,2
1596230847.175028,94,0,103179.3676164167,-1.590307513038684,1.441752424137675,1.310697133390346,-0.06845623999834061,-0.1756673604249954,0.4825606644153595,0.08006340265274048,0.1147663593292236,-0.07193368673324585,2,0.6941827802300617,0.03953172367520807,-0.1435932350371228,0.704221911511013,0.2550381124019623,-0.9663644433021545,-0.03309502080082893,-6.434783935546875,-48.53057861328125,14.09335327148438,2
1596230847.207028,95,0,103179.3977144167,-1.583508154892658,1.434607172966105,1.32542640460341,-0.05347695201635361,0.02206055447459221,0.4269700944423676,-0.008332192897796631,0.06344681978225708,-0.05660879611968994,2,0.694508805261069,0.03416819126187784,-0.1385691861797057,0.7051867745392094,0.2406649589538574,-0.9700475335121155,-0.03298010677099228,-6.908859252929688,-48.27256774902344,14.55377197265625,2
1596230847.235265,96,0,103179.4278134167,-1.572182417948817,1.413911774526142,1.332355508818009,-0.1305903494358063,-0.3064442873001099,-0.03882617130875587,-0.197614461183548,-0.07252013683319092,0.1821239590644836,2,0.6933580340640058,0.02834575216838292,-0.1393496502538504,0.7064224461632429,0.2332865446805954,-0.9717074036598206,-0.03690230846405029,-7.251228332519531,-48.29045104980469,14.22616577148438,2
1596230847.26753,97,0,103179.4579124167,-1.531708877317552,1.373762821813835,1.327583055617158,-0.3786228001117706,-0.1238277181982994,0.03452645242214203,0.0348065048456192,0.08494085073471069,0.03788894414901733,2,0.6895938895625902,0.02980741150234545,-0.1405521548243819,0.70980048201962,0.2361624389886856,-0.9705691337585449,-0.04714357107877731,-7.264976501464844,-48.71327972412109,13.82220458984375,2
1596230847.295558,98,0,103179.4880104167,-1.491827726014739,1.331977090919832,1.33204175729685,-0.2306070029735565,-0.2038016468286514,0.2973029315471649,-0.00597970187664032,-0.06305909156799316,-0.1765327453613281,2,0.6865085359111091,0.02709732397166054,-0.1392049050475791,0.7131575014421893,0.2297800332307816,-0.97163325548172,-0.05594353005290031,-7.367202758789062,-48.658203125,13.44070434570312,2
1596230847.327372,99,0,103179.5181094167,-1.459371951774791,1.286155057745609,1.333150404402497,-0.2835623025894165,-0.4806766211986542,-0.1922372579574585,-0.1573325246572495,0.02909451723098755,0.1197056174278259,2,0.6829978117861031,0.02145100423213459,-0.142918215573134,0.7159805748721116,0.2259426563978195,-0.9718948602676392,-0.06610769033432007,-7.401168823242188,-48.69700622558594,12.89501953125,2
1596230847.355696,100,0,103179.5482074167,-1.429019857166359,1.249598870739194,1.321854682226792,-0.3490032553672791,-0.09469109028577805,-0.1895385384559631,0.1542588770389557,0.1085350513458252,0.06447839736938477,2,0.6786742510616733,0.02258562615103563,-0.1483051113782123,0.71895526198015,0.2337778359651566,-0.9691737294197083,-0.07778230309486389,-7.442031860351562,-48.88288116455078,12.78619384765625,2
1596230847.387587,101,0,103179.5783064167,-1.37859628332737,1.20089817994595,1.318659421907093,-0.5591898560523987,0.01445772498846054,0.1836913675069809,0.1595273166894913,-0.1117353439331055,0.1293330192565918,2,0.6740683568720229,0.02317412051642487,-0.1476645514675563,0.7233877050172496,0.232599750161171,-0.9683815240859985,-0.0901896208524704,-6.93157958984375,-48.98700714111328,12.14669799804688,2
1596230847.420809,102,0,103179.6084054167,-1.320602135560979,1.133201970493104,1.316947701776349,-0.280767560005188,-0.7623606324195862,-0.01742272078990936,-0.3587073087692261,0.07484227418899536,-0.1561093926429749,2,0.6681637532086159,0.01864035144212009,-0.1498941095189708,0.7285199446728386,0.2274673581123352,-0.967953085899353,-0.1064194738864899,-7.236480712890625,-49.40058898925781,11.69302368164062,2
1596230847.447232,103,0,103179.6385034167,-1.30577662429095,1.107532741071011,1.306625915670843,-0.2250331938266754,0.2018859833478928,-0.4024816155433655,-0.2858245968818665,0.03178697824478149,-0.1209257245063782,2,0.6643399931542151,0.0176548963309337,-0.1563860334626537,0.7306736115511379,0.233586922287941,-0.9653094410896301,-0.1166813597083092,-6.871185302734375,-49.20977783203125,11.37548828125,2
1596230847.475936,104,0,103179.6686024167,-1.305840528262408,1.126563229965521,1.292557320697797,-0.2623455226421356,0.7929296493530273,-0.4250478446483612,-0.02349251508712769,-0.01307952404022217,0.1306195259094238,2,0.6634178667601787,0.02926714431143607,-0.1546425312223124,0.7315091646561717,0.2480036020278931,-0.9615405797958374,-0.1180403381586075,-6.547592163085938,-49.09544372558594,10.96859741210938,2
1596230847.507043,105,0,103179.6987014167,-1.300152066393644,1.134736735181911,1.280970638745739,-0.07076543569564819,-0.1465710699558258,-0.1614481061697006,0.1196448802947998,0.02617043256759644,-0.191551685333252,2,0.66196870646637,0.03799765182543932,-0.1536060767920271,0.7326381419681225,0.2590418756008148,-0.9582936763763428,-0.1207072213292122,-6.034538269042969,-49.38694000244141,10.32327270507812,2
1596230847.536333,106,0,103179.7287994167,-1.302258656236294,1.130295426789742,1.279004217609104,-0.02117503434419632,0.01578180491924286,-0.03954603523015976,0.2497044205665588,0.06313520669937134,-0.01553040742874146,2,0.6613247666416542,0.03632745733574144,-0.1564838290274086,0.732695377167199,0.2602071762084961,-0.9577298760414124,-0.1226597353816032,-5.779281616210938,-49.53353118896484,10.45269775390625,2
1596230847.567366,107,0,103179.7588984167,-1.294832223875763,1.124294014429562,1.277040487789409,-0.1550999283790588,-0.129159227013588,-0.02282970026135445,0.05546855926513672,-0.04278665781021118,0.1070523262023926,2,0.6603772720435258,0.03723352227096804,-0.1563793576575362,0.733526332961541,0.261162281036377,-0.9571631550788879,-0.125031054019928,-5.667221069335938,-49.36690521240234,10.47531127929688,2
1596230847.596378,108,0,103179.7889974167,-1.282116025931453,1.102841526863125,1.274281835826474,-0.1093532592058182,-0.4402091503143311,0.01414878107607365,-0.03262549638748169,-0.005681991577148438,-0.03988397121429443,2,0.6579627389180076,0.03446019699056069,-0.1596679665546272,0.7351214926425207,0.26077601313591,-0.9563606977462769,-0.1317950636148453,-5.670654296875,-49.51341247558594,10.06350708007812,2
1596230847.627298,109,0,103179.8190957917,-1.264613779606569,1.079592918680417,1.273911144607874,-0.2187131941318512,-0.02918495982885361,0.109812431037426,0.07524597644805908,0.01267123222351074,-0.01956701278686523,2,0.6557408132094821,0.03177423084009268,-0.160980484741373,0.7369393421616257,0.2579542994499207,-0.9562523365020752,-0.1379887610673904,-5.678916931152344,-49.68292999267578,9.895477294921875,2
1596230847.656848,110,0,103179.8491947917,-1.239104435888774,1.052329977257673,1.274891084135472,-0.1966344267129898,-0.1208144426345825,0.1389395445585251,-0.03584772348403931,-0.02555191516876221,0.07363229990005493,2,0.6533475754952014,0.02974203686627583,-0.1601788900156309,0.7393206077034394,0.2532827854156494,-0.9565385580062866,-0.1445047110319138,-5.670135498046875,-49.56004333496094,9.80865478515625,2
1596230847.687665,111,0,103179.8792937917,-1.216878743881657,1.025441328972497,1.274200430411291,-0.1564509868621826,-0.2989525198936462,0.04596910625696182,-0.1365607380867004,0.0524144172668457,-0.012462317943573,2,0.6507340182047043,0.02725552673349327,-0.1609321105158489,0.7415545255753718,0.2498709112405777,-0.9563369154930115,-0.1516047418117523,-5.86688232421875,-49.61055755615234,9.45172119140625,2
1596230847.718105,112,0,103179.9093917917,-1.20479907675318,1.009678705976042,1.272851601982799,-0.1255215853452682,0.01335761044174433,0.03281799331307411,0.02765840291976929,0.001019001007080078,-0.02201426029205322,2,0.6490231133654699,0.0257612226847749,-0.1619876827673495,0.7428763536921048,0.248542308807373,-0.9559418559074402,-0.156210720539093,-5.738746643066406,-49.55683135986328,9.293212890625,2
1596230847.761906,113,0,103179.9394907917,-1.187506637515994,0.9925757161603878,1.273008949498612,-0.1474508494138718,-0.09270579367876053,0.1424068957567215,-0.02653646469116211,-0.03734028339385986,-0.04422503709793091,2,0.6474558638705109,0.02495661084390727,-0.161052844496769,0.7444729014882031,0.2457082569599152,-0.9559880495071411,-0.1603561490774155,-6.09149169921875,-49.73066711425781,9.10302734375,2
1596230847.776923,114,0,103179.9695897917,-1.17199152428461,0.9692374299373429,1.273923655258587,-0.01499855704605579,-0.4984487593173981,-0.006674443371593952,-0.05053924024105072,0.09066271781921387,-0.1136499643325806,2,0.645587851855433,0.02098953151973168,-0.162539044791229,0.7458932496434091,0.2411783635616302,-0.9562560319900513,-0.1655515283346176,-6.238433837890625,-49.58819580078125,8.874237060546875,2
1596230847.820427,115,0,103179.9996877917,-1.173613091082317,0.9618674386745922,1.272900706971156,-0.09449309110641479,-0.06175054237246513,0.09230376780033112,0.1733103841543198,-0.03558725118637085,0.06173372268676758,2,0.6447734383177511,0.01803676344487129,-0.1658293133543817,0.7459506326148125,0.2407537400722504,-0.9559562802314758,-0.1678837835788727,-5.940261840820312,-49.76169586181641,8.957427978515625,2
1596230847.837173,116,0,103180.0297867917,-1.14624402516839,0.9295740374930269,1.277907752290972,-0.07275809347629547,-0.4520272612571716,0.3087593019008636,-0.2039096802473068,-0.01088547706604004,-0.05990570783615112,2,0.643018403478897,0.01323863822646473,-0.1645112895588998,0.7478554970740868,0.231368750333786,-0.957413911819458,-0.1727041453123093,-6.301307678222656,-49.74754333496094,8.776336669921875,2
1596230847.884562,117,0,103180.0598847917,-1.135759932897519,0.9064548670593597,1.276918187616391,-0.1188547015190125,-0.2904080450534821,-0.1931834667921066,-0.1022588908672333,0.06368380784988403,0.1352406144142151,2,0.6408092036166246,0.008254613146578049,-0.1682993586671003,0.7489797248364882,0.2280606329441071,-0.9571276903152466,-0.1785908490419388,-6.329269409179688,-49.74295806884766,8.8486328125,2
1596230847.897524,118,0,103180.0899837917,-1.136273017871924,0.9042404575906633,1.274528801279907,0.01240576896816492,-0.02698115445673466,0.05424633994698524,-0.03455659747123718,-0.1060574650764465,0.03380680084228516,2,0.6400638603596115,0.007987498647443386,-0.169898664867264,0.7492588191162209,0.2294614017009735,-0.9564328789710999,-0.1805089116096497,-6.159317016601562,-50.01532745361328,8.557525634765625,2
1596230847.94162,119,0,103180.1200827917,-1.127881014207138,0.8946016091171285,1.268544810924698,-0.2862378358840942,-0.05092877894639969,-0.09888126701116562,-0.04020227491855621,0.00546562671661377,-0.04607093334197998,2,0.6377899239032713,0.008868285659794639,-0.1715721510291336,0.7508050579025771,0.2321706861257553,-0.9546687006950378,-0.1862907260656357,-5.951248168945312,-49.84905242919922,8.45172119140625,2
1596230847.957795,120,0,103180.1501807917,-1.112292093100345,0.8848918680882437,1.265651480376911,-0.1114665418863297,0.2597989439964294,0.04285216704010963,0.02115260064601898,0.02668321132659912,-0.06121724843978882,2,0.636188092039549,0.01105529403397262,-0.1696414426126177,0.7525717081233513,0.2324875295162201,-0.9538034200668335,-0.1902849823236465,-6.156654357910156,-49.97858428955078,8.2042236328125,2
1596230848.002552,121,0,103180.1802797917,-1.104905926245578,0.8804898799409722,1.264059252455418,-0.04229982197284698,-0.0663599818944931,0.01746568642556667,0.0390973836183548,0.07014244794845581,-0.07261407375335693,2,0.6353849158131547,0.01222240640754424,-0.1687170314097158,0.7534394621296183,0.2328182011842728,-0.9533239006996155,-0.1922732442617416,-6.133743286132812,-49.85096740722656,8.077178955078125,2
1596230848.018114,122,0,103180.2103787917,-1.097379287269328,0.8699275377953034,1.265666702819415,-0.009914245456457138,-0.156775951385498,0.1380382776260376,0.09058977663516998,-0.00616455078125,0.01149255037307739,2,0.6348466556021933,0.01015356003272794,-0.168775664998438,0.7539106952878714,0.2296030819416046,-0.9538080096244812,-0.1937332600355148,-6.15350341796875,-49.89325714111328,8.036712646484375,2
1596230848.064091,123,0,103180.2404767917,-1.085879429109154,0.8533684343384392,1.267800980028757,-0.049505315721035,-0.1985040456056595,0.08567395061254501,-0.03005893528461456,-0.01087254285812378,-0.0116572380065918,2,0.6339300057733537,0.006924881091624618,-0.1690860407621488,0.7546486299813425,0.2248291373252869,-0.9544470310211182,-0.1961695849895477,-6.321281433105469,-49.85332489013672,7.794677734375,2
1596230848.077943,124,0,103180.2705757917,-1.075139840311078,0.8386072591156052,1.266658486177662,-0.1064057201147079,-0.09900829941034317,0.03738903999328613,-0.1090667992830276,0.0141262412071228,0.01349633932113647,2,0.6323577909049697,0.005085738421448383,-0.1700243255369733,0.7557706340030259,0.2227197140455246,-0.9541054964065552,-0.2001955211162567,-6.540679931640625,-50.10150909423828,7.946319580078125,2
1596230848.120974,125,0,103180.3006747917,-1.073781315451035,0.8344990541638765,1.265455666715622,0.03199970722198486,-0.09058432281017303,-0.08506978303194046,-0.02982385456562042,0.00280386209487915,-0.007607698440551758,2,0.6316973543907285,0.004313397119731582,-0.1711448208219366,0.7560749018823211,0.2227459698915482,-0.9537445902824402,-0.201879695057869,-6.465721130371094,-50.03403472900391,7.67803955078125,2
1596230848.138379,126,0,103180.3307727917,-1.076250319553262,0.8370086051441148,1.262859214493113,-0.1163766458630562,0.04816717654466629,-0.001429811585694551,0.09473781287670135,0.01038599014282227,0.01756894588470459,2,0.6312556502447983,0.005240113715471617,-0.1720099540523094,0.7562415860250975,0.2250901013612747,-0.9529608488082886,-0.2029776871204376,-6.275115966796875,-50.14540100097656,7.821746826171875,2
1596230848.182547,127,0,103180.3608717917,-1.07078789928817,0.8312235360006861,1.262938294707092,0.05056123435497284,-0.1132903918623924,-0.05540604144334793,-0.08725422620773315,0.01672744750976562,-0.04014134407043457,2,0.6307651349796695,0.004752279984824193,-0.171747001469363,0.7567136619222694,0.2238562703132629,-0.9529848098754883,-0.2042255252599716,-6.161956787109375,-50.01441192626953,7.651641845703125,2
1596230848.198281,128,0,103180.3909707917,-1.080142821776988,0.8396319383380376,1.259775456760905,-0.01119154691696167,0.06784451007843018,-0.1027808114886284,0.002367302775382996,0.009067654609680176,0.02057522535324097,2,0.6307069026914307,0.005905592319891545,-0.173515560888323,0.7563505875122614,0.2278083264827728,-0.9520216584205627,-0.2043478488922119,-6.11370849609375,-49.98636627197266,7.723724365234375,2
1596230848.2409,129,0,103180.4210687917,-1.076558334969395,0.8408206089751304,1.259970166664221,-0.06786246597766876,0.2257408499717712,0.09502522647380829,0.03764644265174866,0.004138469696044922,0.002047896385192871,2,0.6308471787666132,0.00742875462160017,-0.1717304339850405,0.7566275448873446,0.2279129177331924,-0.9520812034606934,-0.2039532959461212,-6.21484375,-50.03536224365234,7.670745849609375,2
1596230848.258534,130,0,103180.4511677917,-1.065388406906279,0.8366332502763483,1.255636610420866,-0.2651993036270142,0.1840410232543945,-0.1728431284427643,-0.07341408729553223,0.03586685657501221,0.009017765522003174,2,0.6293275840056113,0.01062475095533252,-0.1700269112348137,0.7582377568169799,0.2301174253225327,-0.9507468938827515,-0.20766781270504,-6.025917053222656,-49.9478759765625,7.370513916015625,2
