loggingTime,loggingSample,identifierForVendor,motionTimestamp_sinceReboot,motionYaw,motionRoll,motionPitch,motionRotationRateX,motionRotationRateY,motionRotationRateZ,motionUserAccelerationX,motionUserAccelerationY,motionUserAccelerationZ,motionAttitudeReferenceFrame,motionQuaternionX,motionQuaternionY,motionQuaternionZ,motionQuaternionW,motionGravityX,motionGravityY,motionGravityZ,motionMagneticFieldX,motionMagneticFieldY,motionMagneticFieldZ,motionMagneticFieldCalibrationAccuracy
1596230814.659516,1,0,103146.830655875,-1.207737550904721,0.6096241209799096,1.227402071767453,-0.1169124096632004,0.3350701928138733,0.1593053638935089,0.03510990738868713,0.005210578441619873,-0.04808765649795532,2,0.5915122582821968,-0.109980028702988,-0.3005478234283978,0.7400597096611294,0.1927718669176102,-0.9416173100471497,-0.2760352790355682,-0.444122314453125,-50.21159362792969,8.248870849609375,2
1596230814.66845,2,0,103146.860755875,-1.195130854810774,0.6058120515595588,1.229228983772709,0.02812554314732552,0.1419835984706879,0.1195960342884064,-0.02705276012420654,0.01431643962860107,0.03264206647872925,2,0.5921294611344631,-0.1081940795060891,-0.2965384375469319,0.7414454694144588,0.1907382756471634,-0.9422308206558228,-0.2753534913063049,-0.6291427612304688,-50.18175506591797,8.07098388671875,2
1596230814.70158,3,0,103146.890854875,-1.190470592142846,0.6019459680044021,1.230969234402129,0.003955239430069923,-0.04165665060281754,0.05230775475502014,0.02056246995925903,0.02641129493713379,0.01157015562057495,2,0.5922874786240505,-0.1087521660851458,-0.2955112357531765,0.7416477400046038,0.1887436062097549,-0.9428123235702515,-0.2747370302677155,-0.78582763671875,-50.18328857421875,7.912628173828125,2
1596230814.728476,4,0,103146.920953875,-1.185270031694493,0.5981785213745437,1.23138415726411,-0.01967382244765759,0.1290047317743301,0.07792887836694717,0.05095025897026062,-0.01725661754608154,0.006925880908966064,2,0.5921287376667282,-0.1087297023610587,-0.2945921150826682,0.7421432659986473,0.1874868869781494,-0.9429505467414856,-0.2751228213310242,-0.8610305786132812,-50.00066375732422,8.1075439453125,2
1596230814.763783,5,0,103146.951052875,-1.177282423150328,0.5962308326364656,1.232747155116713,-0.0007006702944636345,0.2265365123748779,0.09417963773012161,0.02443933486938477,0.005007386207580566,-0.02024161815643311,2,0.5926519767348644,-0.1074792355207209,-0.2918578458756598,0.7429875926392806,0.1862287819385529,-0.943403422832489,-0.2744236886501312,-1.0089111328125,-50.06999206542969,8.07525634765625,2
1596230814.788751,6,0,103146.981151875,-1.171496055193224,0.5979279229788428,1.236037008881475,0.06995492428541183,0.2322875559329987,0.05358123779296875,0.03077521920204163,0.01906299591064453,-0.02482771873474121,2,0.5941193358001096,-0.1060753196141505,-0.2883715718714325,0.7433785980307195,0.1849460154771805,-0.9444894194602966,-0.271540492773056,-1.238479614257812,-50.26289367675781,8.07568359375,2
1596230814.823662,7,0,103147.011250875,-1.172413136793624,0.5983653362701076,1.238667287536946,0.05435725301504135,-0.2854544520378113,0.245195671916008,0.0890960693359375,0.02365833520889282,-0.07887077331542969,2,0.59486218370427,-0.1069386986128776,-0.2879162624518085,0.7428372007714032,0.1836649030447006,-0.9453502893447876,-0.2694061994552612,-1.44586181640625,-50.13353729248047,8.04718017578125,2
1596230814.84897,8,0,103147.041349875,-1.142688913826192,0.5610783612966128,1.246113905715664,0.1830920577049255,-0.3466560244560242,0.3242425620555878,-0.006898790597915649,0.04661619663238525,-0.1594230532646179,2,0.593243958701684,-0.1140738397747479,-0.2860834963350243,0.7437773158697499,0.169743537902832,-0.947752058506012,-0.2700975239276886,-1.658065795898438,-50.05060577392578,8.349761962890625,2
1596230814.885568,9,0,103147.071449875,-1.149675870533396,0.5572290575108485,1.257331456813935,0.3220652043819427,-0.326993316411972,0.0598173551261425,-0.2243614494800568,0.0008056163787841797,-0.0209689736366272,2,0.5954617053200969,-0.1207093981808559,-0.2870539140873824,0.7405771426173989,0.1630699783563614,-0.9512708783149719,-0.2617091834545135,-2.044647216796875,-50.20217132568359,8.31005859375,2
1596230814.909249,10,0,103147.101548875,-1.166774704706101,0.5716710763930011,1.262361348551405,0.2733116149902344,0.227864146232605,-0.2372835129499435,-0.1733792424201965,-0.002837300300598145,0.08564651012420654,2,0.5979081651587629,-0.1218855247356173,-0.2878137596458294,0.7381143259237719,0.1642414927482605,-0.9528098106384277,-0.2552994787693024,-1.8870849609375,-50.27515411376953,8.93890380859375,2
1596230814.94629,11,0,103147.131647875,-1.197855809014372,0.6146079397130366,1.267353789877135,0.1785798668861389,0.3985437452793121,-0.02084119059145451,-0.1154660582542419,-0.01458781957626343,-0.03726935386657715,2,0.6035619290594482,-0.116835588304244,-0.2850914171394121,0.7353809123973343,0.1723033338785172,-0.9543135166168213,-0.2441248893737793,-1.96282958984375,-50.02900695800781,9.530303955078125,2
1596230814.969366,12,0,103147.161746875,-1.228147453304502,0.6542275542623585,1.268495303466571,0.3336667716503143,0.115463525056839,-0.3660715520381927,0.003806143999099731,0.02001327276229858,-0.109894871711731,2,0.6077656871315048,-0.1117986971096755,-0.2839136268457133,0.7331539386364936,0.1811746060848236,-0.9546539783477783,-0.2362438440322876,-1.832710266113281,-50.14919281005859,9.70849609375,2
1596230815.005426,13,0,103147.191845875,-1.274027962147413,0.6988506668871268,1.273455857798912,0.4368226826190948,0.0139257051050663,-0.1287844777107239,0.1086861193180084,0.06703090667724609,-0.04682445526123047,2,0.6128061307777847,-0.110992931601933,-0.285710940887868,0.7283667868845252,0.1884837001562119,-0.9561190605163574,-0.224298432469368,-1.3194580078125,-49.80902862548828,10.43814086914062,2
1596230815.029601,14,0,103147.221944875,-1.313094127739286,0.731181431508285,1.282854910003367,0.5788871645927429,-0.2727963328361511,-0.1040149033069611,-0.04708975553512573,0.02896177768707275,-0.1122782230377197,2,0.6174677161039206,-0.1141873844222191,-0.2873087713334508,0.7232899822976284,0.1896266043186188,-0.9588304758071899,-0.2113897204399109,-1.277046203613281,-49.91885375976562,11.03787231445312,2
1596230815.064287,15,0,103147.252044875,-1.374975315275843,0.78901339375276,1.292081369847474,0.5460680723190308,0.1205012053251266,-0.2477451115846634,-0.07493698596954346,0.03647470474243164,0.01131308078765869,2,0.6242902446266958,-0.1155184671264253,-0.2889574917795609,0.7165336382211479,0.1952409446239471,-0.9614097476005554,-0.1938343495130539,-0.9557342529296875,-49.41868591308594,12.077880859375,2
1596230815.089807,16,0,103147.282143875,-1.432354977653354,0.8524980412346512,1.296723075510523,0.5107824802398682,0.3296854197978973,-0.230518639087677,0.02063649892807007,0.003624558448791504,-0.01110303401947021,2,0.6311178627088774,-0.11238689442847,-0.2881235064750222,0.711367781612426,0.2037829458713531,-0.962676465511322,-0.1781188547611237,-0.5474929809570312,-49.41810607910156,12.4610595703125,2
1596230815.124206,17,0,103147.312242875,-1.494995084150048,0.9213991570068253,1.303573764588427,0.5831171274185181,0.2660486400127411,-0.149600625038147,-0.05726385116577148,0.02284586429595947,0.03242474794387817,2,0.6387679049949078,-0.1101737407743649,-0.2863169039780559,0.7055918059453767,0.2103047221899033,-0.9645079970359802,-0.1596746146678925,-0.3011703491210938,-49.0150146484375,13.65066528320312,2
1596230815.150076,18,0,103147.342341875,-1.555287037799244,0.9907281982219814,1.306432515239948,0.3738472759723663,0.4151110351085663,-0.2940921187400818,-0.07685601711273193,-0.02613645792007446,0.149691104888916,2,0.6458535913130037,-0.1061506960760903,-0.2843360300372518,0.7005411182748664,0.2185530364513397,-0.9652589559555054,-0.1432103365659714,-0.291961669921875,-48.89252471923828,14.11550903320312,2
1596230815.183886,19,0,103147.372440875,-1.602966917261675,1.049292889802379,1.303598191454678,0.2831782102584839,0.342757910490036,-0.2857484519481659,-0.01500505208969116,0.01858013868331909,-0.0233842134475708,2,0.6513070435307681,-0.1001578125683306,-0.2829229296034284,0.6969374761638584,0.2289319336414337,-0.964514434337616,-0.1315350979566574,0.1554031372070312,-48.61164855957031,14.71047973632812,2
1596230815.210484,20,0,103147.402539875,-1.654911542029578,1.112013834115775,1.301359085610152,0.4521064758300781,0.5662793517112732,-0.3016216158866882,-0.03194892406463623,0.03837913274765015,-0.02986878156661987,2,0.6573550222499316,-0.09456637031431783,-0.2811874801863073,0.6927300010107766,0.2386620789766312,-0.9639208316802979,-0.1178831532597542,0.2752227783203125,-48.42678833007812,14.96539306640625,2
1596230815.244572,21,0,103147.432638875,-1.719836355014497,1.190241079285497,1.296832410586968,0.3776705861091614,0.4000914096832275,-0.4472648203372955,0.01632171869277954,-0.007713258266448975,0.08807528018951416,2,0.6649157073873938,-0.08741442433205093,-0.2792379807910082,0.6872203209763978,0.25119349360466,-0.9627060294151306,-0.1004916429519653,0.7442092895507812,-48.48644256591797,15.8834228515625,2
1596230815.270423,22,0,103147.462738875,-1.746101439906124,1.222471999956811,1.288110178988266,-0.09852306544780731,0.1827933043241501,-0.1979991793632507,-0.01340514421463013,-0.04828929901123047,0.0287322998046875,2,0.6675921073361407,-0.08195863912661869,-0.2804373839143226,0.6848052105110669,0.2621841728687286,-0.960309624671936,-0.09520711749792099,1.083656311035156,-48.15845489501953,16.17593383789062,2
1596230815.307586,23,0,103147.492837875,-1.760923504010097,1.255683718472103,1.286969239913542,0.3655316829681396,0.9118316769599915,-0.0439651757478714,0.001966029405593872,0.07145905494689941,0.2461344599723816,2,0.6715351779740859,-0.07514262592050439,-0.2747747222860391,0.6840268444035946,0.2662426233291626,-0.9599907398223877,-0.08678817749023438,1.020133972167969,-48.14389038085938,16.34661865234375,2
1596230815.330435,24,0,103147.522936875,-1.776520104591196,1.290532210648131,1.282915190901808,-0.08074171841144562,0.3693792223930359,-0.2535378336906433,0.1686916649341583,0.00317680835723877,-0.06742310523986816,2,0.6754562078341286,-0.06701775630500034,-0.2697367592298581,0.6830149034183841,0.2728424966335297,-0.9588476419448853,-0.07853506505489349,0.946624755859375,-48.01052093505859,16.62326049804688,2
1596230815.366265,25,0,103147.553035875,-1.793377208453506,1.316781474172533,1.281937345557834,0.2521466612815857,0.2538142502307892,0.1396917253732681,0.2313441634178162,0.01880979537963867,0.01297712326049805,2,0.6783710855033118,-0.06341428846317157,-0.2669335988623033,0.6815699694454366,0.2757175266742706,-0.9585695266723633,-0.07158259302377701,0.95367431640625,-48.05487060546875,16.95867919921875,2
1596230815.390741,26,0,103147.583134875,-1.79621142026399,1.321698202273364,1.288570065229293,0.005870181601494551,-0.04659595340490341,0.1846797615289688,-0.02915987372398376,-0.01219391822814941,0.08560311794281006,2,0.6792888985582016,-0.06510024153683211,-0.2639882596058188,0.6816440105890833,0.2698982059955597,-0.9604378342628479,-0.06865710020065308,0.441436767578125,-47.98685455322266,16.93743896484375,2
1596230815.423857,27,0,103147.613233875,-1.802251069246199,1.325338189118329,1.290237135463992,0.0459180660545826,-0.07321435958147049,-0.1015651747584343,-0.07948729395866394,0.02037966251373291,0.02250593900680542,2,0.6796566962488962,-0.06651518261608133,-0.2642450114216038,0.68104099253817,0.2685926556587219,-0.9609007239341736,-0.06728500872850418,0.5281753540039062,-48.2005615234375,17.0565185546875,2
1596230815.450962,28,0,103147.643332875,-1.801977505483362,1.32509132400859,1.286579402407539,-0.05680806189775467,0.04155256226658821,-0.05676931142807007,0.0320504903793335,-0.01149183511734009,0.08592426776885986,2,0.6794470498218199,-0.06518304341908904,-0.2654730163894775,0.6809013652184805,0.27198326587677,-0.9598815441131592,-0.06820575147867203,0.53863525390625,-48.13505554199219,17.04275512695312,2
1596230815.485741,29,0,103147.673432875,-1.796812168088348,1.319130678820653,1.285965948341456,-0.07612341642379761,-0.1668004989624023,-0.04338975995779037,-0.08899089694023132,-0.01882302761077881,0.03847527503967285,2,0.6787915137379107,-0.06523704336010222,-0.2659453958552297,0.6813655797477699,0.2721424102783203,-0.9597093462944031,-0.06997241824865341,0.7975692749023438,-47.77986907958984,17.04153442382812,2
1596230815.511561,30,0,103147.703531875,-1.790515552829021,1.305427085456919,1.279458092202639,-0.1634837239980698,-0.3038201928138733,-0.3132314085960388,-0.07358875870704651,0.02864980697631836,0.03469139337539673,2,0.6767975566534498,-0.06541680448127896,-0.2706420267067996,0.6814824198626959,0.2771789133548737,-0.9578603506088257,-0.0753314197063446,1.009666442871094,-47.83338928222656,16.84259033203125,2
1596230815.546444,31,0,103147.733630875,-1.771786175859274,1.286927326758489,1.26989287244606,-0.3501969575881958,0.3552751541137695,-0.1407890617847443,-0.01845577359199524,-0.03333795070648193,0.1834344267845154,2,0.6742843610314964,-0.06193826746283648,-0.2737251063122395,0.6830656662107348,0.2845213115215302,-0.9550691246986389,-0.08300850540399551,1.329002380371094,-48.09300994873047,16.53579711914062,2
1596230815.571323,32,0,103147.763729875,-1.734678808070321,1.259937392808,1.261851211874428,-0.4895922243595123,0.1657367050647736,-0.2447001785039902,-0.1490782797336578,-0.01466691493988037,0.07540178298950195,2,0.6711077712615319,-0.05579388818876854,-0.2727957019046376,0.6870835173354667,0.2894805073738098,-0.9526548385620117,-0.0930028036236763,1.357154846191406,-48.26786041259766,16.00323486328125,2
1596230815.609756,33,0,103147.7938291667,-1.700883317995489,1.23871164482014,1.24703993901032,-0.5600342154502869,0.5901308059692383,-0.4298149943351746,0.01848426461219788,0.04456579685211182,0.2152435183525085,2,0.66782105490302,-0.04644956781795301,-0.2732196969902982,0.6908027302757734,0.3007487654685974,-0.9480471014976501,-0.1037149503827095,1.526649475097656,-48.3909912109375,15.73733520507812,2
1596230815.63152,34,0,103147.8239281667,-1.647839837868621,1.21055868522413,1.230655781489697,-0.7475524544715881,0.6893270015716553,-0.1171083599328995,0.1036722362041473,-0.03141880035400391,0.05777966976165771,2,0.6634246159255418,-0.03267963106138108,-0.2696417315036018,0.697203705859697,0.3122051954269409,-0.9427077770233154,-0.11759964376688,1.810073852539062,-48.69367218017578,14.339599609375,2
1596230815.664208,35,0,103147.8540271667,-1.599585605364203,1.180213536572339,1.221826781574359,-0.6508752703666687,0.3614684343338013,-0.1441522240638733,0.01180052757263184,-0.007861316204071045,0.1210414171218872,2,0.6590322094904063,-0.02420035097099341,-0.2657024881438734,0.7032018727293111,0.3161775171756744,-0.9397255778312683,-0.1301817744970322,1.756484985351562,-48.63314819335938,13.8109130859375,2
1596230815.691728,36,0,103147.8841261667,-1.538913244391647,1.141321933329574,1.209719354748276,-0.8160784840583801,1.060656785964966,0.010262630879879,-0.3766663372516632,-0.1961333751678467,0.181057870388031,2,0.6528846185202737,-0.01377172650386776,-0.2609804103824844,0.7109438356238833,0.3211983442306519,-0.935516893863678,-0.147104024887085,1.540435791015625,-49.19688415527344,12.66854858398438,2
1596230815.726556,37,0,103147.9142261667,-1.494859791703716,1.149932011783572,1.193582002001769,-0.7459738254547119,2.038792848587036,-0.8827435374259949,-0.3850586414337158,-0.3097934722900391,0.243259072303772,2,0.651668865677531,0.00931218573204709,-0.2477018140737887,0.7168576210953823,0.3361901342868805,-0.9296942949295044,-0.1504819393157959,1.231361389160156,-49.29216003417969,11.87472534179688,2
1596230815.752025,38,0,103147.9443251667,-1.431836798294872,1.143164560525043,1.13457337196858,-2.660569429397583,1.840874671936035,-1.855565309524536,-0.3320286870002747,-1.053379058837891,-0.2921432256698608,2,0.6404062920494239,0.04761173846883127,-0.2462065170920291,0.7259443344978275,0.3844713568687439,-0.9063540101051331,-0.1752258092164993,2.461296081542969,-49.54811859130859,10.359130859375,2
1596230815.783357,39,0,103147.9744241667,-1.311215169602069,1.125453643046779,1.044063939459566,-2.861776351928711,3.350810289382935,-1.985334515571594,-1.779169797897339,-1.116331577301025,0.4370974898338318,2,0.6162353456674341,0.1094453057716059,-0.2360871029435344,0.7433293183257502,0.4536782503128052,-0.8644543290138245,-0.2165514528751373,3.70166015625,-49.67052459716797,8.05145263671875,2
1596230815.812185,40,0,103148.0045231667,-1.167271829112865,1.147090416270696,0.9155483615355783,-5.173702716827393,6.085008144378662,-3.646416187286377,-1.629187226295471,-0.9099109768867493,0.8352223038673401,2,0.5780068878334346,0.2015994677146868,-0.2151106042064846,0.7609158632220313,0.5554713010787964,-0.7928968667984009,-0.2505313754081726,7.189346313476562,-49.41474151611328,2.814361572265625,2
1596230815.8449,41,0,103148.0346221667,-1.012361650732252,1.241853798042438,0.7524450492068105,-5.513725280761719,7.615554332733154,-3.668765783309937,-0.9099796414375305,-0.4203607439994812,1.250354528427124,2,0.5237031083913986,0.3283616543350527,-0.1798086644914206,0.7652334540802836,0.6908793449401855,-0.6834257245063782,-0.2358273565769196,14.37679290771484,-47.60298919677734,-3.293426513671875,2
1596230815.87242,42,0,103148.0647211667,-0.8246770497211904,1.364901686930265,0.5962394948194685,-6.463775157928467,7.950893402099609,-3.744815111160278,-0.1953393816947937,0.1060830354690552,1.106286287307739,2,0.4504383638671425,0.461000843591702,-0.1275542814114164,0.7538657079296226,0.8099761605262756,-0.5615348219871521,-0.1691670119762421,18.53221130371094,-45.51522827148438,-5.67327880859375,2
1596230815.906342,43,0,103148.0948201667,-0.6395096550432238,1.481476696762541,0.4680471561510921,-5.036121845245361,5.374452114105225,-2.96753454208374,0.3025248050689697,0.2732138633728027,0.6773766875267029,2,0.3687968868982368,0.5693725849481844,-0.07708868216433146,0.730657867364469,0.8888932466506958,-0.4511443376541138,-0.07960743457078934,26.45378112792969,-40.03482818603516,-8.33245849609375,2
1596230815.932531,44,0,103148.1249191667,-0.4854117208586503,1.497516057810679,0.386456659744368,-4.86113166809082,0.1569521874189377,-1.585296988487244,0.9343648552894592,0.160498321056366,0.1712205410003662,2,0.2970995965992201,0.614674106399913,-0.045885756240547,0.7292476078459234,0.9237645268440247,-0.3769087791442871,-0.0678151473402977,29.29978942871094,-37.41825866699219,-9.57733154296875,2
1596230815.965266,45,0,103148.1550181667,-0.3461377954363552,1.408812868419046,0.3679700677180072,-3.810935974121094,-2.515172481536865,1.290151238441467,0.6167677640914917,0.1584716737270355,0.1609201431274414,2,0.2469590974673276,0.6031344362298059,-0.01230138468777131,0.7583460340725042,0.920845091342926,-0.3597221374511719,-0.1504801064729691,30.11117553710938,-34.12232208251953,-16.35223388671875,2
1596230815.992708,46,0,103148.1851171667,-0.2172362685855621,1.260805643376325,0.4137291441906636,-3.401566982269287,-3.411974668502808,3.369284868240356,0.1770402789115906,0.8048883080482483,0.7628199458122253,2,0.2274750976360213,0.5555169235628127,0.03465793353152161,0.7990335882225403,0.8719857335090637,-0.4020266234874725,-0.2793120443820953,27.94500732421875,-33.93311309814453,-20.26327514648438,2
1596230816.023143,47,0,103148.2152171667,-0.05586555379110719,1.132510086843854,0.4844258362558947,-3.836076498031616,0.1443012952804565,4.450685977935791,-0.3311959505081177,1.301229953765869,1.028083443641663,2,0.2168815041626564,0.5149590088352516,0.1057424029441633,0.8225559152749915,0.8012980222702026,-0.4657003283500671,-0.3755592703819275,20.97045135498047,-33.7838134765625,-27.46099853515625,2
1596230816.052942,48,0,103148.2453161667,0.09967332377865533,1.122351133841195,0.5654721454439247,-1.343068599700928,4.045323371887207,4.112662315368652,-0.9638371467590332,1.099373579025269,0.1509602069854736,2,0.2104445178374099,0.5221837997618575,0.1887871650672004,0.8046095238217914,0.76084965467453,-0.5358145236968994,-0.3660743534564972,18.43778228759766,-33.656005859375,-29.4476318359375,2
1596230816.087849,49,0,103148.2754151667,0.1492923093071817,1.232859238709307,0.6589852415176681,0.6157873868942261,4.194149017333984,2.477538347244263,-0.3628488183021545,0.4308922290802002,0.09521579742431641,2,0.2224798019424495,0.5651920559567705,0.2441166220137452,0.7559547680376658,0.7458972334861755,-0.6123148798942566,-0.2621213495731354,17.95680236816406,-35.49209594726562,-27.67245483398438,2
1596230816.113023,50,0,103148.3055141667,0.1679214634599983,1.28569309754093,0.6904056463608064,-1.468178510665894,0.9047706723213196,-0.006779116578400135,0.7635209560394287,-1.426605701446533,1.07998788356781,2,0.2225812258221998,0.5848375460843354,0.2653035875077726,0.7335097189910647,0.7398648262023926,-0.6368499994277954,-0.2168452888727188,18.448974609375,-36.50038909912109,-25.76043701171875,2
1596230816.145142,51,0,103148.3356131667,0.2925086962359284,1.256301463534683,0.6951026395119991,-3.581517696380615,2.09691858291626,2.916342973709106,0.8838078379631042,-0.03088253736495972,0.5251730680465698,2,0.1921200991211902,0.5867764855854189,0.3088795928841406,0.7234477447265671,0.7303202748298645,-0.6404642462730408,-0.2375664412975311,18.87314605712891,-34.92280578613281,-27.1837158203125,2
1596230816.17333,52,0,103148.3657121667,0.4185723023447437,1.237261102408087,0.7901980414798342,-0.6116612553596497,3.239310741424561,4.401919841766357,-0.6895763874053955,0.5156019926071167,0.3525770902633667,2,0.1955224416305703,0.5887101488695019,0.3745584230313965,0.6891279508397643,0.6649240851402283,-0.7104926705360413,-0.2303826659917831,17.97655487060547,-34.49136352539062,-28.39651489257812,2
1596230816.205495,53,0,103148.3958111667,0.4939616129542084,1.278888013078574,0.8697734068531521,0.8273022770881653,4.91739559173584,0.1956096291542053,-0.1117340326309204,0.514335036277771,0.2706530690193176,2,0.1954983394516297,0.6074300622822332,0.421700942805233,0.6441874261679345,0.6177139282226562,-0.7641828060150146,-0.1856182366609573,15.82745361328125,-36.00368499755859,-28.08251953125,2
1596230816.233463,54,0,103148.4259101667,0.4748277503975208,1.53386455239549,0.7696605752006173,-3.639811277389526,4.294289588928223,-4.84217643737793,2.063042163848877,0.6034311652183533,0.4291740655899048,2,0.1114544500425412,0.6887087217918011,0.4101563633517686,0.5873923935693982,0.7176570296287537,-0.6958914995193481,-0.02651640400290489,19.47809600830078,-36.27460479736328,-24.92727661132812,2
1596230816.26354,55,0,103148.4560091667,0.5435252482310026,1.481081053299875,0.6995207791966105,2.683242082595825,-3.44730806350708,0.5108163952827454,1.608179807662964,0.8311628103256226,-1.234998226165771,2,0.07350443179860275,0.678469064785214,0.4088450914342648,0.6059062641306594,0.7620734572410583,-0.643851101398468,-0.06855365633964539,28.06925964355469,-30.30496215820312,-23.5291748046875,2
1596230816.293613,56,0,103148.4861081667,0.3619528156184437,1.42710790625631,0.7799272580113318,3.748291492462158,-7.391160488128662,3.349540948867798,0.1945023536682129,-0.07644879817962646,0.1556142568588257,2,0.1737551921105583,0.6472294944879269,0.3706204402566609,0.6430735708451438,0.7036378979682922,-0.703227698802948,-0.1018062308430672,21.739990234375,-35.32820129394531,-24.09701538085938,2
1596230816.325095,57,0,103148.5162081667,0.3359532592961105,1.249232910142165,0.8946056691969245,-0.2774008512496948,-3.895918607711792,3.690508842468262,-0.6420503258705139,-1.326907157897949,1.27946937084198,2,0.2577784732417924,0.5784928660906128,0.3716584993148476,0.6787975229803536,0.5937479138374329,-0.7799623608589172,-0.1977925300598145,15.73779296875,-37.78054046630859,-25.470947265625,2
1596230816.353917,58,0,103148.5463071667,0.4041300584400301,1.151788188947653,0.9637828687805944,0.2413944751024246,1.268009901046753,0.9043288230895996,-1.715485811233521,0.1851013898849487,0.2309879064559937,2,0.2839469489246081,0.5507592659951137,0.3964097509462174,0.6774197911915485,0.5210717916488647,-0.8213552236557007,-0.2320767194032669,8.622772216796875,-39.10990905761719,-27.365234375,2
1596230816.386202,59,0,103148.5764061667,0.374113468740834,1.262437190513727,0.9394508748779196,-0.1404470950365067,3.425116300582886,-2.348917007446289,-0.6787752509117126,0.4120733737945557,0.3603915572166443,2,0.2611882708961683,0.5849909279778064,0.3963301351488965,0.6576387273706888,0.5623918175697327,-0.8072341084480286,-0.1791325956583023,9.879783630371094,-39.34940338134766,-26.760498046875,2
1596230816.414108,60,0,103148.6065051667,0.356192446537295,1.362377459584191,0.8596463043253404,-0.216067910194397,2.127477407455444,-2.423776626586914,0.3491074442863464,-0.4388900995254517,-0.01438641548156738,2,0.2171795598691087,0.6207304956282553,0.3833602117754626,0.6485071680710158,0.638580322265625,-0.7576117515563965,-0.1350533813238144,16.58821105957031,-37.64175415039062,-25.19940185546875,2
1596230816.446371,61,0,103148.6366041667,0.3449834772646609,1.386693007428475,0.8276449431033219,0.0208749808371067,-1.101998567581177,0.5074475407600403,0.8103959560394287,-0.437673032283783,-0.4379757642745972,2,0.2042428071146202,0.6295656290492824,0.3740476221908479,0.6496309613201772,0.665177583694458,-0.7363399267196655,-0.1238639876246452,18.64806365966797,-37.06659698486328,-24.74453735351562,2
1596230816.474337,62,0,103148.6667031667,0.3478740800683842,1.336896774590004,0.8716409719959154,0.5327991247177124,-1.554581880569458,1.760591745376587,0.07995283603668213,0.07475888729095459,-0.2160565853118896,2,0.229069107133386,0.610693232388295,0.3808106394633578,0.6554115761023744,0.626046895980835,-0.7653860449790955,-0.149162232875824,16.46804046630859,-37.57848358154297,-25.25888061523438,2
1596230816.508489,63,0,103148.6968021667,0.3415835339061332,1.31432940095362,0.9055749382339775,0.08652324974536896,-0.1580053716897964,0.1282792985439301,-0.3609228134155273,0.06515109539031982,0.1540020704269409,2,0.2479572101357166,0.6001933741946507,0.3843575864784488,0.6561664457788567,0.5970450639724731,-0.7867801785469055,-0.1565702706575394,14.40587615966797,-38.61870574951172,-25.38262939453125,2
1596230816.534499,64,0,103148.7269011667,0.337867616875031,1.327370556068203,0.8864595882759849,-0.1834912151098251,0.6386494636535645,-1.045109391212463,-0.2406325340270996,-0.009683310985565186,0.1067888736724854,2,0.2394503302771047,0.6053753136212137,0.3800709899960304,0.6570617682209143,0.6135216951370239,-0.7748385071754456,-0.1523685306310654,14.52870941162109,-38.65050506591797,-25.38034057617188,2
1596230816.567326,65,0,103148.7570001667,0.3390378312024828,1.348042296622311,0.8623463705297242,-0.2245280295610428,0.7091553807258606,-0.305255264043808,0.127147912979126,0.1270420551300049,0.09201526641845703,2,0.2262019036829147,0.6139725127678245,0.3768597768215771,0.6556272124673531,0.6345813870429993,-0.7593713402748108,-0.1437409073114395,15.71965789794922,-37.99321746826172,-25.26412963867188,2
1596230816.594945,66,0,103148.7871,0.3435847088683066,1.356997864918576,0.8663473537999884,0.07888487726449966,0.1694868057966232,0.4395954012870789,0.2983631491661072,0.09641075134277344,0.0007245540618896484,2,0.2245923824174097,0.617134536888177,0.3803639793264162,0.6511730733040143,0.6328690648078918,-0.7619684934616089,-0.1374064534902573,16.61846160888672,-37.90077972412109,-24.84896850585938,2
1596230816.624794,67,0,103148.817199,0.3443618450150033,1.350670248063644,0.8782774943606688,-0.01698034815490246,-0.5176669359207153,0.2930407524108887,0.226813793182373,0.03370726108551025,0.007199406623840332,2,0.2299830271441381,0.6143298340056691,0.3828982625779843,0.6504579732165673,0.6230712532997131,-0.7696402668952942,-0.1394133269786835,16.23028564453125,-38.01381683349609,-24.81283569335938,2
1596230816.654838,68,0,103148.847299,0.3488907700529528,1.327002528287779,0.8873284645073497,-0.007029391825199127,-0.7801476716995239,0.4201719462871552,0.002060890197753906,-0.02414160966873169,0.07044577598571777,2,0.2365051364310371,0.6065059263820998,0.3838557028397802,0.6548821038704367,0.6128120422363281,-0.7753874659538269,-0.1524317562580109,15.36746978759766,-38.19626617431641,-25.16363525390625,2
1596230816.687077,69,0,103148.877398,0.3544712099683024,1.298623717541451,0.9017205039333173,-0.03044208139181137,-0.795609712600708,0.4507125020027161,-0.1985923051834106,-0.1131544709205627,0.09664005041122437,2,0.2456793514021755,0.5968843178492359,0.3857353932796697,0.6592259709546664,0.5974288582801819,-0.7843952178955078,-0.1667415350675583,14.830810546875,-38.55258178710938,-25.5755615234375,2
1596230816.715417,70,0,103148.907497,0.3606661385814764,1.269084014820064,0.9064132912199174,-0.1461228430271149,-0.7477890253067017,-0.0925058126449585,-0.1716386675834656,-0.1856670379638672,0.03552311658859253,2,0.2513111903288956,0.5875658022682014,0.3852149225111037,0.6657465360964175,0.5887221693992615,-0.7872973680496216,-0.1832182258367538,13.29498291015625,-38.62142181396484,-26.21881103515625,2
1596230816.745169,71,0,103148.937596,0.3660462850525757,1.243876906053186,0.8976175781073503,-0.2540991008281708,-0.6222527027130127,-0.3321623504161835,0.00150299072265625,-0.1544522047042847,0.06491398811340332,2,0.2512208791001401,0.5803281844021816,0.3818422891601055,0.6740205415986379,0.5904527306556702,-0.7818437218666077,-0.2002145349979401,13.00490570068359,-38.59803771972656,-26.43792724609375,2
1596230816.775352,72,0,103148.967695,0.3716261707686759,1.223323772793957,0.8877194625837259,-0.2109884023666382,-0.5185492634773254,-0.07855734974145889,0.2403665781021118,-0.01813805103302002,0.1955405473709106,2,0.2497123402815856,0.5746110488645265,0.3789398450359298,0.6810802509179764,0.5934605598449707,-0.7756343483924866,-0.2149317860603333,12.75013732910156,-38.12886047363281,-27.22067260742188,2
1596230816.806268,73,0,103148.997794,0.3810820103263187,1.19253252518025,0.8924984812752409,-0.02311842516064644,-0.8515106439590454,0.4342703819274902,0.3310127258300781,-0.002302348613739014,0.356275737285614,2,0.2547085572717085,0.5650301873244884,0.3793358803522388,0.6869997838609989,0.583111047744751,-0.7786418795585632,-0.2317288815975189,11.69757843017578,-37.95262908935547,-27.63821411132812,2
1596230816.835606,74,0,103149.027893,0.3877484759348833,1.162885033371868,0.9083092846500094,0.2112237513065338,-0.9790759682655334,0.6891660690307617,0.2035549879074097,0.09954392910003662,0.5320585966110229,2,0.2646534899082889,0.5549411461290983,0.3811162754498017,0.6904702770648655,0.5646132230758667,-0.7884649634361267,-0.2439977079629898,10.85576629638672,-38.15959167480469,-28.06314086914062,2
1596230816.868455,75,0,103149.057992,0.3656144363262532,1.136861864073393,0.936879175609903,1.449198603630066,-1.943100094795227,0.5293939709663391,0.2109296321868896,0.373636782169342,0.5724393129348755,2,0.286837611428098,0.5414874164454301,0.3756939511416877,0.6952478267701534,0.5374096035957336,-0.8057135343551636,-0.249031126499176,8.733146667480469,-39.19155883789062,-27.76779174804688,2
1596230816.895715,76,0,103149.088091,0.2687387855278908,1.123357224124768,0.9670356375633942,2.690739154815674,-4.816285610198975,-0.366824746131897,0.4196381568908691,0.6162843704223633,0.5254512429237366,2,0.3267525113906761,0.5200131346659674,0.3457612013753052,0.7094139911301234,0.511852502822876,-0.82320636510849,-0.2456382662057877,7.266426086425781,-39.99212646484375,-26.94598388671875,2
1596230816.927824,77,0,103149.11819,0.07671256421001256,1.078472761867033,0.9852001752169387,4.15065336227417,-8.030941963195801,-1.79328989982605,0.9500391483306885,0.3021379113197327,0.478604793548584,2,0.3881640164052182,0.4676600693664253,0.2716492810203133,0.7462099467365358,0.4870562255382538,-0.8333827257156372,-0.2612455189228058,2.808982849121094,-43.02640533447266,-23.78189086914062,2
1596230816.955886,78,0,103149.148289,-0.1619909128009864,1.039288258668269,0.9949112536065431,3.571587085723877,-7.478516578674316,-1.673742175102234,0.4749526977539062,-0.3797626495361328,0.5167657732963562,2,0.4481487589269234,0.4014443548907111,0.1744672230694714,0.7794653702068628,0.4694494009017944,-0.8387106657028198,-0.2760102450847626,0.4731369018554688,-44.74173736572266,-20.97433471679688,2
1596230816.991936,79,0,103149.178388,-0.3786314918672798,1.035584512375663,0.9919376355304935,3.094139575958252,-4.858419895172119,-2.806926965713501,-0.02080899477005005,-0.1171719431877136,0.4361968636512756,2,0.4880366087125015,0.3497304179638874,0.08752094515418796,0.7948892380141547,0.4705670475959778,-0.8370875716209412,-0.2790178060531616,-0.9801788330078125,-47.50411224365234,-15.37051391601562,2
1596230817.016588,80,0,103149.208487,-0.6084190453929399,1.088826874600672,0.945536083220841,2.978634119033813,-4.576910495758057,-3.797678470611572,-0.01744067668914795,0.08823078870773315,0.2070645093917847,2,0.5097569793238534,0.3232573529644296,-0.003122970914798212,0.7972719392094169,0.5186319351196289,-0.8108108043670654,-0.2713050246238708,0.2911376953125,-48.25276947021484,-12.60272216796875,2
1596230817.046137,81,0,103149.238586,-0.8162723404166526,1.113094687174291,0.89294387066309,2.841858148574829,-4.666374206542969,-2.83227014541626,0.09750008583068848,-0.1750385761260986,0.1301164627075195,2,0.5256219929332938,0.2918268937463258,-0.094607536325513,0.7934783393501992,0.5625722408294678,-0.7789213061332703,-0.2771171629428864,4.973983764648438,-48.96453094482422,-8.01190185546875,2
1596230817.076355,82,0,103149.268685,-0.9641805503264415,1.094411824098307,0.8693364360492495,1.987088084220886,-4.107666015625,-1.434665203094482,-0.1815948486328125,-0.3249697089195251,0.2312036752700806,2,0.5374304432889624,0.2514029630683979,-0.1649827305926874,0.7878742173608329,0.5734813213348389,-0.7639008760452271,-0.2959301471710205,6.837135314941406,-48.93914031982422,-6.11456298828125,2
1596230817.106306,83,0,103149.298785,-1.056219925392455,1.051167771550753,0.869276635292985,1.718703746795654,-3.30896258354187,-0.6017228364944458,-0.7219555377960205,-0.1583369970321655,0.02513688802719116,2,0.5439347941543923,0.2095254830157039,-0.212880374446051,0.7841657015310715,0.5601914525032043,-0.7638623118400574,-0.320468008518219,8.789833068847656,-48.93942260742188,-4.15167236328125,2
1596230817.136574,84,0,103149.328884,-1.144108991541097,1.047137238334683,0.8869380285230943,2.028788328170776,-1.534475326538086,-0.1717491894960403,-0.6267400979995728,0.1156699061393738,0.1648053526878357,2,0.5569193359971911,0.178542127185557,-0.2431166969979989,0.7738589368728446,0.5471256375312805,-0.7751408815383911,-0.315927118062973,8.935508728027344,-49.24177551269531,-3.178131103515625,2
1596230817.166555,85,0,103149.358983,-1.213997309805248,1.066068553812801,0.9262622875794748,1.688440442085266,-0.9614642262458801,1.090737223625183,-0.3909504413604736,-0.225236713886261,0.2629716396331787,2,0.5753561240475732,0.1539314074209829,-0.2530575001118155,0.7623859143173186,0.5259066224098206,-0.799379825592041,-0.2905409038066864,9.119827270507812,-49.20478057861328,-0.21160888671875,2
1596230817.19979,86,0,103149.389082,-1.239437794454871,1.063771053720836,0.9895767845192363,1.268266797065735,-0.671276867389679,1.968684196472168,-0.3066629767417908,-0.335218608379364,0.2255373001098633,2,0.5923782592440587,0.1256424508903131,-0.2444962182260476,0.7573133246154958,0.4799698889255524,-0.835793673992157,-0.266603946685791,7.892868041992188,-49.50327301025391,1.198638916015625,2
1596230817.22674,87,0,103149.419181,-1.242484865631803,1.036869598797367,1.064894823123963,1.299281597137451,-1.527300596237183,2.2759850025177,-0.2056091725826263,-0.1675499081611633,0.1720900535583496,2,0.607040417522825,0.09051087046971946,-0.23102835059664,0.7549407687237774,0.4171477854251862,-0.8747379779815674,-0.2466194331645966,4.554649353027344,-50.26213836669922,3.306732177734375,2
1596230817.256857,88,0,103149.44928,-1.225775331854624,0.9637473961684893,1.135101575521923,0.7369284629821777,-2.220320701599121,1.673288464546204,-0.2524457573890686,-0.3570903539657593,0.3855472803115845,2,0.614443829343423,0.045641709797758,-0.2260272276627109,0.7545112685889672,0.3466364443302155,-0.9065770506858826,-0.2407512366771698,0.6249008178710938,-50.6282958984375,5.296295166015625,2
1596230817.286968,89,0,103149.479379,-1.20065105303178,0.8882566988958684,1.165441590145202,0.008623434230685234,-0.6686903834342957,0.5754597783088684,-0.3968141674995422,-0.1346195936203003,0.3394001126289368,2,0.612695376422794,0.0153223831865712,-0.2308182921761705,0.7557066486201625,0.3060010671615601,-0.9189625382423401,-0.2487391978502274,-0.4558868408203125,-50.61485290527344,5.431365966796875,2
1596230817.317379,90,0,103149.509478,-1.174742455590269,0.8540093304592306,1.187748517992219,0.7707546949386597,-0.4190993010997772,1.024831414222717,-0.5470467805862427,0.08031845092773438,0.04427182674407959,2,0.6141807180049216,0.003450570375470113,-0.2251432328962933,0.7563600967223654,0.281777024269104,-0.9275298118591309,-0.2455402761697769,-1.785354614257812,-50.64993286132812,5.801300048828125,2
1596230817.349268,91,0,103149.539577,-1.197129186782805,0.8604002382077967,1.227567035690945,0.7361369729042053,-0.6080430150032043,0.4015351235866547,-0.2307057976722717,0.01103764772415161,0.1952341794967651,2,0.6245733693283907,-0.01330323847069476,-0.2201956670501979,0.7491627403987867,0.2551241219043732,-0.9416728019714355,-0.2194622606039047,-2.703666687011719,-50.67532348632812,7.055023193359375,2
1596230817.377233,92,0,103149.569676,-1.188446034800646,0.8310689162260496,1.229865517065186,-0.2600302696228027,-0.9215798377990723,0.1291130185127258,-0.1532805562019348,-0.3377288579940796,-0.1203506588935852,2,0.6219387516833811,-0.02229340877769073,-0.2254245297312197,0.7495857745117886,0.2469788640737534,-0.94244384765625,-0.2253903895616531,-3.107597351074219,-50.52429962158203,7.53857421875,2
1596230817.407257,93,0,103149.599775,-1.191112220361792,0.8153856373210093,1.240426689496448,0.5211610198020935,-0.05138857662677765,0.1436551064252853,-0.4552044868469238,-0.4572798013687134,-0.1275479793548584,2,0.6227054995692306,-0.0322179522739186,-0.2283056594603151,0.7477141437447438,0.2361547350883484,-0.9459224939346313,-0.2223997265100479,-3.263557434082031,-50.48875427246094,7.7276611328125,2
1596230817.437552,94,0,103149.629874,-1.217328917950268,0.8491077779307802,1.237984947337222,-0.1415974497795105,0.7124505043029785,-0.6597307920455933,-0.1461432278156281,0.1029495000839233,0.2727346420288086,2,0.6255795349371563,-0.02705950642545554,-0.2282673905119008,0.7455278986868922,0.2452515810728073,-0.9451276063919067,-0.2158360630273819,-3.104751586914062,-50.25864410400391,8.33935546875,2
1596230817.467844,95,0,103149.659973,-1.253378816930433,0.9112290074474093,1.218345232024805,-0.00969614926725626,0.7724344730377197,-0.6082894206047058,0.2805083990097046,0.2715232968330383,0.104977548122406,2,0.6278164457436982,-0.009047375928595086,-0.2279819601901867,0.7441698494779911,0.2727960646152496,-0.9385294318199158,-0.2115293145179749,-2.693672180175781,-50.31098937988281,8.290069580078125,2
1596230817.500431,96,0,103149.690072,-1.262270249214272,0.9221744987647289,1.218129680475673,0.228736624121666,-0.7880719304084778,0.4426764249801636,0.2073357701301575,-0.3543305397033691,-0.209430992603302,2,0.6289786525082298,-0.007702259606015727,-0.227913349015614,0.7432240247932882,0.2752562463283539,-0.9384549856185913,-0.208653062582016,-2.229133605957031,-50.20867156982422,8.068878173828125,2
1596230817.527663,97,0,103149.720171,-1.251685220249383,0.889035719374816,1.23068255686922,-0.007737006992101669,-0.3435864150524139,0.07825075089931488,-0.03769886493682861,0.1068533658981323,0.05858898162841797,2,0.6280631590220327,-0.02068028410216913,-0.2306700318897343,0.7428998673412199,0.2590239346027374,-0.9427167177200317,-0.2102179825305939,-2.334884643554688,-50.24134063720703,8.206298828125,2
1596230817.557905,98,0,103149.75027,-1.264177824851312,0.9038673932128257,1.225995041409232,0.1133896261453629,0.2766479253768921,-0.2785339057445526,-0.07512453198432922,0.09761303663253784,-0.006753742694854736,2,0.6286076903551403,-0.01760985860004782,-0.2320356835021162,0.7420927406787153,0.2655825316905975,-0.9411426186561584,-0.2090845257043839,-2.345741271972656,-50.43070983886719,8.32513427734375,2
1596230817.587967,99,0,103149.78036925,-1.27450436944443,0.9194641163707246,1.226102918916801,0.03729066997766495,0.169377401471138,0.06911302357912064,-0.1520613729953766,-0.1300110816955566,0.1061770915985107,2,0.6303521922952332,-0.0151116034758155,-0.2309234658376298,0.7410141985167369,0.2687304019927979,-0.941179096698761,-0.2048555016517639,-2.177345275878906,-50.4527587890625,8.52789306640625,2
1596230817.618247,100,0,103149.81046825,-1.281278862618675,0.9286639280972743,1.223804514779962,0.007776173297315836,-0.04346306622028351,-0.3362883925437927,0.04231277108192444,-0.01146221160888672,-0.09067302942276001,2,0.6308672608966117,-0.01310175995584734,-0.2312210698620108,0.7405211952510498,0.2723353505134583,-0.9403999447822571,-0.2036696821451187,-1.858909606933594,-50.27574157714844,8.54827880859375,2
1596230817.64931,101,0,103149.84056725,-1.29376770028137,0.9352550434662383,1.215858700167358,-0.06191401928663254,-0.3427906632423401,-0.07105378061532974,0.1425218284130096,0.04268383979797363,-0.1515449285507202,2,0.6298456332323391,-0.01203470948418345,-0.2361562292469139,0.7398511436620503,0.2796761393547058,-0.9376681447029114,-0.206299290060997,-1.70538330078125,-50.26206207275391,8.49285888671875,2
1596230817.678275,102,0,103149.87066625,-1.289831375558651,0.918467735510183,1.222600447566595,0.2175919115543365,-0.4397129416465759,0.3181456327438354,-0.06100210547447205,-0.02115511894226074,0.0747535228729248,2,0.6293414826195397,-0.01918147545826335,-0.2379591861959977,0.7395515963408261,0.2711437940597534,-0.9399898052215576,-0.2071227431297302,-1.67864990234375,-50.01560974121094,8.825958251953125,2
1596230817.708351,103,0,103149.90076525,-1.288496405083576,0.91075239477503,1.226237077326613,-0.06685847789049149,-0.01767056807875633,-0.1532434225082397,0.0004634261131286621,0.07531106472015381,0.1508225798606873,2,0.6292258250490803,-0.02278473024025071,-0.2388047825815579,0.7392752962617939,0.2668358981609344,-0.9412243962287903,-0.2071114331483841,-1.8712158203125,-50.03673553466797,8.874420166015625,2
1596230817.738547,104,0,103149.93086425,-1.293757589364091,0.9157023926296175,1.222678898965253,0.04848603904247284,-0.08170544356107712,0.0612848773598671,0.07042199373245239,-0.07314521074295044,0.03663378953933716,2,0.6289879652050308,-0.02146407139789142,-0.2402569537617942,0.739046567138426,0.2705115675926208,-0.9400165677070618,-0.2078268676996231,-1.87738037109375,-50.20498657226562,8.755279541015625,2
1596230817.768733,105,0,103149.96096325,-1.279938357576826,0.8978091003470258,1.227483428999826,-0.08527702838182449,-0.2143119722604752,0.1930876523256302,-0.1210644543170929,-0.0009688138961791992,0.04916387796401978,2,0.6280547474413618,-0.02528164967482122,-0.2393365184308502,0.7400175264641742,0.2632151544094086,-0.9416446685791016,-0.2098161429166794,-2.035919189453125,-50.24857330322266,8.683502197265625,2
1596230817.800232,106,0,103149.99106225,-1.281018392984169,0.8982086063049981,1.226199032326734,0.01932741515338421,0.1421127319335938,-0.1734418869018555,0.03568288683891296,0.07104063034057617,-0.003004670143127441,2,0.6278054709634365,-0.02506155165986618,-0.2399925167668977,0.740024134249645,0.2642449140548706,-0.9412115812301636,-0.2104644179344177,-2.037925720214844,-50.24085235595703,8.66546630859375,2
1596230817.82862,107,0,103150.02116125,-1.280396030931705,0.9017655886882879,1.224568972886097,-0.05625566840171814,0.006828705780208111,0.09110162407159805,-0.03730824589729309,-0.08891212940216064,-0.02478426694869995,2,0.6278794274943363,-0.02302770169164758,-0.2391302312922068,0.7403064799612548,0.2661947906017303,-0.9406596422195435,-0.2104742974042892,-1.778335571289062,-50.06777191162109,8.86737060546875,2
1596230817.85884,108,0,103150.05126025,-1.275492106613891,0.8946842816157473,1.225395997716312,-0.06672453135251999,-0.06658530235290527,-0.09048142284154892,-0.1495857834815979,0.05336982011795044,0.09532648324966431,2,0.6272736242582245,-0.02437534124512561,-0.2392909794884119,0.7407249027655733,0.2640909850597382,-0.9409399628639221,-0.2118672877550125,-1.824356079101562,-50.07794189453125,8.639190673828125,2
1596230817.888915,109,0,103150.08135925,-1.279790839500552,0.90305268354571,1.21843415871622,-0.1167229190468788,0.2993753552436829,-0.208590492606163,0.1138349175453186,0.004906296730041504,0.04832649230957031,2,0.6266845827654743,-0.02039540703987019,-0.2403267525459438,0.7410083255862752,0.2709918022155762,-0.9385601282119751,-0.213700920343399,-1.447563171386719,-50.06098937988281,8.376251220703125,2
1596230817.919254,110,0,103150.11145825,-1.266898822058324,0.8963234912741146,1.215750238837494,-0.221009150147438,-0.03054238110780716,0.2252048403024673,-0.0388704240322113,-0.0187411904335022,-0.01525259017944336,2,0.6254039882997368,-0.01799842316382386,-0.2384465919111093,0.7427576095996545,0.271513968706131,-0.9376304745674133,-0.2170918136835098,-1.52752685546875,-50.10297393798828,8.33587646484375,2
1596230817.949478,111,0,103150.14155725,-1.256072523827096,0.8842536900179104,1.218654593047699,0.04712643474340439,-0.1361087411642075,-0.2084797620773315,-0.04504448175430298,0.07286918163299561,-0.06820094585418701,2,0.6247286708142747,-0.02002259320406172,-0.2373397148508932,0.7436283089160651,0.2667671144008636,-0.9386361837387085,-0.2186263650655746,-1.719474792480469,-50.47126007080078,8.09613037109375,2
1596230817.979243,112,0,103150.17165625,-1.273938517631057,0.8987107096088366,1.209805118194044,-0.111189641058445,-0.0929168239235878,-0.2166111767292023,0.1560931801795959,-0.02361541986465454,-0.05771380662918091,2,0.6242929655456768,-0.01741380700827269,-0.2420735275648803,0.7425330690187364,0.276388943195343,-0.9355471730232239,-0.2199101001024246,-1.557868957519531,-50.41458129882812,8.011016845703125,2
1596230818.009269,113,0,103150.20175525,-1.26510683995756,0.8833500640891773,1.210561219074623,0.03295617550611496,-0.4069336652755737,0.2020014673471451,0.00893595814704895,-0.004637479782104492,-0.06420665979385376,2,0.6226837514426234,-0.02060777583347118,-0.24335834983365,0.7433820335239697,0.2724316716194153,-0.9358139634132385,-0.2236805260181427,-1.565132141113281,-50.15958404541016,8.004638671875,2
1596230818.039843,114,0,103150.23185425,-1.267355730138302,0.8739743540613922,1.21236350265904,0.05061272159218788,-0.2800368666648865,-0.1266847550868988,0.02582842111587524,0.09643834829330444,0.058338463306427,2,0.621920837394428,-0.02536354683241221,-0.2465825209986516,0.7428110457434696,0.2690289616584778,-0.9364477396011353,-0.2251423299312592,-1.530059814453125,-50.22079467773438,7.966522216796875,2
1596230818.069531,115,0,103150.26195325,-1.245866287734841,0.8507195854075746,1.219020529277477,-0.1645581126213074,-0.02813097462058067,0.6386027932167053,0.1679087281227112,-0.0995643138885498,0.04489690065383911,2,0.6209050643793166,-0.02943479803398619,-0.2438789724921371,0.7444014482962369,0.2590287625789642,-0.9387623071670532,-0.2272209823131561,-1.787155151367188,-50.29845428466797,8.1904296875,2
1596230818.099992,116,0,103150.29205225,-1.227112275162321,0.8232730292441717,1.226053099938208,0.1058751046657562,-0.6529448628425598,-0.1094497367739677,0.0117323100566864,0.09947830438613892,-0.05156874656677246,2,0.6195372435814263,-0.03603496514667162,-0.2433829576297713,0.7454125463672565,0.247847780585289,-0.9411622881889343,-0.2297501713037491,-2.190841674804688,-50.36655426025391,8.141754150390625,2
1596230818.129656,117,0,103150.32215125,-1.242550924158208,0.8187163492166922,1.220459695272739,-0.1219607815146446,-0.5863453149795532,-0.3089564740657806,-0.04052013158798218,0.04232555627822876,0.08041292428970337,2,0.6173354935522631,-0.04076780275829411,-0.2521384325689227,0.7440840347228304,0.2506386637687683,-0.9392572045326233,-0.2344697564840317,-1.767990112304688,-50.26389312744141,7.9925537109375,2
1596230818.159927,118,0,103150.35225125,-1.243685688964113,0.7998910277127013,1.215546837618981,-0.006071511656045914,-0.6129708290100098,0.1189245209097862,-0.1495826244354248,-0.08802682161331177,-0.07311934232711792,2,0.6137179876950375,-0.04659279003760367,-0.2597514861545192,0.7441159172491023,0.2494874447584152,-0.9375597238540649,-0.2423586845397949,-1.263526916503906,-50.29638671875,7.8082275390625,2
1596230818.190128,119,0,103150.38235025,-1.236158482900475,0.7827569821479272,1.215182236810938,-0.181312307715416,-0.1268142908811569,-0.09236801415681839,-0.1255453526973724,0.03019195795059204,0.07348227500915527,2,0.6115755881013746,-0.05055182871633374,-0.2623009767999925,0.744726645319457,0.2455391585826874,-0.9374328851699829,-0.246839627623558,-1.371925354003906,-50.44057464599609,7.7607421875,2
1596230818.220144,120,0,103150.41244925,-1.235009638083092,0.7773105446904512,1.209691727883827,-0.04984627664089203,-0.1145333722233772,-0.1023026630282402,-0.07908296585083008,0.02859050035476685,-0.01570355892181396,2,0.6095299801493109,-0.05053655149337216,-0.2650729226017917,0.7454230455021504,0.2477975636720657,-0.9355071187019348,-0.2518385350704193,-1.1253662109375,-50.37664031982422,7.685272216796875,2
1596230818.250091,121,0,103150.44254825,-1.238311954216023,0.7770206751157217,1.20715383808697,-0.007844705134630203,-0.0962718203663826,-0.07916245609521866,-0.04111427068710327,0.01019167900085449,-0.0141289234161377,2,0.6087785519116361,-0.05086763587036905,-0.2671010337164198,0.7452906018931138,0.2493884265422821,-0.9346074461936951,-0.2536023259162903,-0.9995651245117188,-50.52409362792969,7.35888671875,2
1596230818.280212,122,0,103150.47264725,-1.239970736655822,0.7784499150640717,1.205731318784318,-0.06468921899795532,0.004614291246980429,-0.01379198301583529,0.01666960120201111,0.03674668073654175,-0.007106781005859375,2,0.6085751434774332,-0.05040047617728702,-0.2676818673798754,0.7452801656374666,0.2506841123104095,-0.9341005682945251,-0.2541921734809875,-0.85052490234375,-50.42578887939453,7.268646240234375,2
1596230818.310313,123,0,103150.50274625,-1.238393216805412,0.7757170879658211,1.205569920272392,0.04737083986401558,-0.0480562299489975,0.008305443450808525,0.007761597633361816,-0.009423375129699707,-0.03309929370880127,2,0.608209196038519,-0.05088937243592312,-0.2679702873910845,0.745441903844791,0.2500938475131989,-0.9340429306030273,-0.2549836933612823,-0.87359619140625,-50.41425323486328,7.37225341796875,2
1596230818.340744,124,0,103150.53284525,-1.239386558400703,0.7749661337164582,1.205883984858114,-0.004050000570714474,-0.07308816909790039,-0.02401846647262573,-0.0114133358001709,-0.0003679990768432617,-0.002191722393035889,2,0.6081609373142881,-0.05156813395753057,-0.2684812218900935,0.7452508375756741,0.2496971935033798,-0.9341550469398499,-0.2549619972705841,-0.93951416015625,-50.41930389404297,7.38079833984375,2
1596230818.370425,125,0,103150.56294425,-1.250899687601471,0.7796879247196006,1.207697993665558,0.1373822540044785,-0.0944981575012207,-0.1440096348524094,0.02756363153457642,0.02502143383026123,0.01258444786071777,2,0.6089418778580884,-0.05387537231838757,-0.2708221155265013,0.7436010058333713,0.2497062981128693,-0.9348008632659912,-0.2525744736194611,-0.7288284301757812,-50.45871734619141,7.4793701171875,2
1596230818.400683,126,0,103150.59304325,-1.25476460865261,0.7856981434189166,1.204362290270191,-0.1934385299682617,0.1825659424066544,-0.0341142937541008,0.04329553246498108,-0.01115810871124268,0.02746701240539551,2,0.6088372050333553,-0.05178059505975149,-0.2713664641288616,0.7436371176485437,0.2534240484237671,-0.9336109161376953,-0.2532720565795898,-0.6050262451171875,-50.47968292236328,7.512451171875,2
1596230818.432699,127,0,103150.62314225,-1.242334841670851,0.7780813121209809,1.20089554942106,-0.1218590065836906,0.08898718655109406,0.04205205664038658,-0.07485619187355042,0.01391351222991943,-0.06436276435852051,2,0.6072678799685131,-0.0497615438772952,-0.2700265994677084,0.745543581640944,0.2537581622600555,-0.9323632121086121,-0.2574990093708038,-0.4520187377929688,-50.42658233642578,7.330535888671875,2
