loggingTime,loggingSample,identifierForVendor,motionTimestamp_sinceReboot,motionYaw,motionRoll,motionPitch,motionRotationRateX,motionRotationRateY,motionRotationRateZ,motionUserAccelerationX,motionUserAccelerationY,motionUserAccelerationZ,motionAttitudeReferenceFrame,motionQuaternionX,motionQuaternionY,motionQuaternionZ,motionQuaternionW,motionGravityX,motionGravityY,motionGravityZ,motionMagneticFieldX,motionMagneticFieldY,motionMagneticFieldZ,motionMagneticFieldCalibrationAccuracy
1596230819.74155,1,0,103151.917403,-1.21525773489823,0.7838585087208783,1.214240326040621,0.05800995230674744,-0.003863942343741655,-0.0423445887863636,-0.006884485483169556,0.02045786380767822,-0.04917299747467041,2,0.6119756760276377,-0.04345790619885256,-0.2544301162147559,0.7475709727316294,0.2464343458414078,-0.9371045231819153,-0.2471943646669388,-1.35821533203125,-50.15586853027344,7.61553955078125,2
1596230819.755016,2,0,103151.947502,-1.223575903905148,0.7940891364975585,1.215330851513999,0.1166669726371765,0.2157969176769257,-0.03154242038726807,0.06611773371696472,0.0291132926940918,0.0185922384262085,2,0.6133678636825882,-0.04251916287527474,-0.2540977482787455,0.7465964551307249,0.2482214719057083,-0.9374846220016479,-0.2439439743757248,-1.351310729980469,-50.18333435058594,7.649810791015625,2
1596230819.787018,3,0,103151.977601,-1.230038568333374,0.8065045630460852,1.216128525541003,0.05132275819778442,0.1615580469369888,-0.02982426807284355,-0.007598221302032471,0.01358604431152344,-0.01563888788223267,2,0.6150022424620345,-0.04011745362893043,-0.2524713681163129,0.7459362145446298,0.2506907880306244,-0.9377619028091431,-0.2403256595134735,-1.497764587402344,-50.18557739257812,7.85333251953125,2
1596230819.815234,4,0,103152.0077,-1.236341085332687,0.8159894301953433,1.218006308723124,0.1521734893321991,0.07378861308097839,0.005079228430986404,0.02266839146614075,0.02080649137496948,-0.0908777117729187,2,0.6165271256564896,-0.0391043611842293,-0.2513673168607878,0.7451036717997213,0.251675933599472,-0.9384123682975769,-0.2367303073406219,-1.470436096191406,-50.36732482910156,7.813690185546875,2
1596230819.847478,5,0,103152.037799,-1.239642840152861,0.8232378204424781,1.219630978272993,-0.04527284577488899,0.2821864783763885,0.05716843903064728,0.03691631555557251,-0.03599900007247925,0.009273767471313477,2,0.6177619694565492,-0.0379289801099528,-0.249896768174506,0.7446361754377344,0.2522668540477753,-0.9389724731445312,-0.2338630855083466,-1.386322021484375,-50.18920135498047,8.107666015625,2
1596230819.875438,6,0,103152.067898,-1.225122793059302,0.8227695596365031,1.22018400472231,-0.07300061732530594,0.5565874576568604,0.1501367539167404,-0.1076063513755798,0.02037680149078369,0.04808247089385986,2,0.6180973488067087,-0.03378908601570044,-0.2444712134764215,0.7463562632335754,0.2517766356468201,-0.93916255235672,-0.2336279302835464,-1.787132263183594,-50.26612091064453,8.322967529296875,2
1596230819.907146,7,0,103152.097997,-1.225161980184853,0.8393475735178271,1.220498105148423,0.1415883153676987,0.3922565579414368,-0.04201456531882286,-0.02436071634292603,0.02979397773742676,-0.1111966967582703,2,0.6201770730409576,-0.02771119738433606,-0.2392639135923129,0.7465689016158786,0.2553953528404236,-0.9392704367637634,-0.2292249798774719,-1.843635559082031,-50.10502624511719,7.892425537109375,2
1596230819.935757,8,0,103152.128096,-1.232260128786559,0.8619145275846842,1.226560494945549,0.1015055552124977,1.159000992774963,0.3522156774997711,0.0924934446811676,-0.008290946483612061,0.1644490957260132,2,0.624184594267994,-0.02339238849474803,-0.2331402066826009,0.7453133359155562,0.2561757266521454,-0.9413335919380188,-0.2196927815675735,-1.753204345703125,-50.083740234375,8.14007568359375,2
1596230819.967524,9,0,103152.158195,-1.204260088438623,0.8629979177164727,1.238890652170074,0.1195351630449295,0.4419327080249786,0.3664546012878418,0.1034090220928192,-0.004236817359924316,-0.009423196315765381,2,0.6274930872726873,-0.01806286989030326,-0.2187775176651795,0.7470358039370604,0.2475755363702774,-0.9454231262207031,-0.2118523120880127,-2.33001708984375,-50.03838348388672,8.26123046875,2
1596230819.995801,10,0,103152.188295,-1.205979737863276,0.8693520588003315,1.245134100486163,0.1039716973900795,-0.06388171017169952,0.113768607378006,0.2809268832206726,0.008045554161071777,-0.03449583053588867,2,0.6296342539174693,-0.0181656162268955,-0.2156101004326918,0.7461519742884808,0.2444023936986923,-0.9474390745162964,-0.2064614295959473,-3.367576599121094,-50.02877044677734,8.413543701171875,2
1596230820.044393,11,0,103152.218394,-1.194845743246235,0.8505160237133835,1.258966911786583,0.4412024319171906,-0.4683906435966492,0.7576002478599548,0.201659619808197,0.06689876317977905,-0.3180226683616638,2,0.6309868925085983,-0.02595193951779418,-0.2133860712889456,0.7454182836999603,0.2305975258350372,-0.9517738819122314,-0.2023640722036362,-4.142326354980469,-50.04031372070312,8.926544189453125,2
1596230820.056078,12,0,103152.248493,-1.188953716226085,0.8341448717912138,1.287762384051283,0.6435540914535522,-0.1998592764139175,0.4878524243831635,-0.1331652998924255,0.07069283723831177,-0.04362016916275024,2,0.6361372287707455,-0.03899943233514422,-0.2080794109631999,0.741964601905082,0.2068617194890976,-0.9602125883102417,-0.1876169443130493,-4.6256103515625,-50.10614013671875,9.546356201171875,2
1596230820.0875,13,0,103152.278592,-1.216049648591952,0.8537326675964666,1.302558018731444,0.3638445138931274,-0.225337028503418,0.1443216055631638,-0.1151684522628784,0.003867268562316895,0.2273273468017578,2,0.6410088714817478,-0.04495798862498138,-0.2075515963040447,0.7375694289437335,0.1997655481100082,-0.9642392992973328,-0.1741728186607361,-5.263015747070312,-49.68740081787109,10.27816772460938,2
1596230820.116235,14,0,103152.308691,-1.214142128230351,0.8475256343249087,1.317034063574083,0.2571482956409454,-0.05736543238162994,0.5527894496917725,-0.0858466625213623,-0.03558933734893799,0.06517511606216431,2,0.6436701811420559,-0.05111015491156212,-0.204605306157696,0.7356717599803775,0.1881960779428482,-0.9679747819900513,-0.1661528944969177,-5.43658447265625,-49.57811737060547,10.67068481445312,2
1596230820.163578,15,0,103152.33879,-1.208255999028804,0.8431785578615908,1.331968075308561,0.2959848642349243,0.1320066303014755,0.1398588716983795,-0.3446566760540009,0.01934075355529785,0.01861000061035156,2,0.6467308408284308,-0.05541398097976252,-0.1994753776400237,0.7340831194051827,0.1766568273305893,-0.9716158509254456,-0.15733702480793,-6.18255615234375,-49.52729797363281,11.17913818359375,2
1596230820.176466,16,0,103152.368889,-1.221044645109921,0.860755450017021,1.331266722488103,0.06739311665296555,0.4540112912654877,-0.2639216482639313,-0.2921244204044342,-0.0782092809677124,-0.07925033569335938,2,0.6479790059400127,-0.05288808262242958,-0.1986840786538007,0.7333830517862664,0.1799117773771286,-0.9714496731758118,-0.1546521186828613,-6.256370544433594,-49.41960906982422,11.3765869140625,2
1596230820.207354,17,0,103152.398988,-1.269564885584238,0.9213476725311971,1.328259946312905,0.2682079970836639,0.2883873581886292,-0.3274823427200317,-0.06842657923698425,0.05621016025543213,-0.1272444128990173,2,0.652155413091951,-0.04553632456047027,-0.1976491319929734,0.7304482164884177,0.1912720501422882,-0.9707319736480713,-0.1452395170927048,-5.775230407714844,-49.37127685546875,11.6290283203125,2
1596230820.236698,18,0,103152.429087,-1.326753540774427,0.9829617306922366,1.326568043164465,0.4649703204631805,0.1150650978088379,-0.308713972568512,-0.008700340986251831,0.04461240768432617,-0.04833072423934937,2,0.65669567702035,-0.04126123223422715,-0.1988395600612798,0.7262995049379886,0.2012181282043457,-0.9703242182731628,-0.1340965926647186,-5.718841552734375,-49.35662078857422,11.87045288085938,2
1596230820.266753,19,0,103152.459186,-1.398208390155241,1.055629475396261,1.325390114089549,0.4232166707515717,0.09589305520057678,-0.3609038889408112,-0.04739078879356384,-0.002155303955078125,0.05203133821487427,2,0.6623419195942352,-0.03814273779504737,-0.2011019355048806,0.7206984266273415,0.2114176601171494,-0.9700387120246887,-0.1196966245770454,-5.152191162109375,-49.18854522705078,12.5845947265625,2
1596230820.296835,20,0,103152.489285,-1.462916881124205,1.121806742098617,1.321394473735214,0.4509972035884857,0.2439181953668594,-0.4074018895626068,-0.1635259687900543,0.01359140872955322,0.04346370697021484,2,0.667263296561531,-0.03452334407215332,-0.2036463551545552,0.7156089139321502,0.2223610579967499,-0.9690602421760559,-0.1071356609463692,-4.867897033691406,-49.19086456298828,13.13937377929688,2
1596230820.344434,21,0,103152.519384,-1.540752213076837,1.20750351944726,1.310628513216135,0.3872784674167633,0.3483107388019562,-0.7578306198120117,-0.04667302966117859,0.0466536283493042,0.07464277744293213,2,0.6734988494835669,-0.02633027242775232,-0.2062415475198439,0.7093449613078388,0.2404523938894272,-0.966346800327301,-0.09141203016042709,-3.937835693359375,-48.88995361328125,13.79669189453125,2
1596230820.3571,22,0,103152.549483,-1.584796661174006,1.258611647490158,1.294885692652155,0.1620571464300156,0.3489480018615723,-0.3681249916553497,0.01612865924835205,-0.06584930419921875,-0.04872822761535645,2,0.6766503958053173,-0.01756110998468391,-0.2098837510442466,0.705538592269663,0.2592557668685913,-0.9621775150299072,-0.0836716964840889,-3.447921752929688,-49.00217437744141,14.1805419921875,2
1596230820.387304,23,0,103152.579583,-1.625739643617191,1.315420975373425,1.28847542099333,0.1857223510742188,0.7167251110076904,-0.4003745913505554,0.09315633773803711,0.1058380007743835,0.1966856718063354,2,0.681710243638654,-0.009202662361072117,-0.2071725794841566,0.7016165485078306,0.2695498466491699,-0.9604114294052124,-0.07037290930747986,-3.138801574707031,-48.76993560791016,14.56033325195312,2
1596230820.417308,24,0,103152.609682,-1.638453653226738,1.34734311645404,1.275967540228681,0.06712030619382858,0.4751927256584167,-0.3157989382743835,0.2541230320930481,-0.01700258255004883,0.04903519153594971,2,0.6839591483322306,0.002097607463946105,-0.204993057383182,0.7001236105509502,0.2833509147167206,-0.9568518996238708,-0.06439096480607986,-2.839111328125,-48.82570648193359,14.605224609375,2
1596230820.465338,25,0,103152.639781,-1.647968598033498,1.364361161888533,1.274936870641001,0.008135656826198101,0.1804224252700806,0.1539459675550461,0.1579890251159668,-0.005252599716186523,0.05732834339141846,2,0.6856327983348618,0.005160207386388505,-0.2028466297570683,0.6990953280698433,0.2853715717792511,-0.9565519094467163,-0.05976207554340363,-2.618293762207031,-48.59159851074219,14.89260864257812,2
1596230820.477419,26,0,103152.66988,-1.645903089535307,1.368280548132729,1.278570139967722,0.05257219076156616,0.2302591651678085,-0.0334833562374115,-0.0951705276966095,0.08001291751861572,0.06593692302703857,2,0.6862892128616142,0.005944252000969819,-0.1995381422989267,0.699396923695671,0.2821965217590332,-0.9576049447059631,-0.05794356390833855,-2.910797119140625,-48.68212127685547,14.70849609375,2
1596230820.507825,27,0,103152.699979,-1.648219199433085,1.374337588141245,1.273972964592072,-0.06749485433101654,-0.2371103465557098,-0.1771807968616486,-0.1331902146339417,-0.101317286491394,-0.02483099699020386,2,0.6865673127198442,0.008904576002410042,-0.1998411389176435,0.6990060635592068,0.2868574857711792,-0.9562704563140869,-0.05709206685423851,-2.902900695800781,-48.81536865234375,14.85650634765625,2
1596230820.537678,28,0,103152.730078,-1.646558354735612,1.368725865810572,1.268435838763439,-0.09227869659662247,0.2210388332605362,-0.1999018341302872,0.01410725712776184,0.0406571626663208,0.09738302230834961,2,0.6855864107240216,0.009485062018682461,-0.2030774553312929,0.6990283397295511,0.2917149364948273,-0.95463627576828,-0.0597626157104969,-2.43487548828125,-48.71360778808594,14.94720458984375,2
1596230820.583599,29,0,103152.760177,-1.636288322110849,1.365366814488815,1.259934217017198,-0.1826268434524536,0.05986485257744789,-0.3159043490886688,-0.05063199996948242,-0.06640613079071045,0.1512305736541748,2,0.6845301222394864,0.01485517253826579,-0.2035379253789861,0.6998358237667417,0.2994480431079865,-0.9520702362060547,-0.06239566951990128,-2.217132568359375,-48.69255065917969,14.4520263671875,2
1596230820.598165,30,0,103152.7902760417,-1.6108788404879,1.337823501998841,1.248966467133136,-0.4184767305850983,-0.09339260309934616,-0.278237372636795,-0.1340222954750061,0.000340878963470459,0.1592135429382324,2,0.6805671393904454,0.01777036855651534,-0.2077637536215693,0.7023864642846228,0.307757705450058,-0.9486582279205322,-0.0730251669883728,-1.741622924804688,-49.0526123046875,14.15304565429688,2
1596230820.646019,31,0,103152.8203750417,-1.58601324670067,1.316538936727338,1.235070859420997,-0.4116372466087341,0.1242402866482735,-0.5243495106697083,-0.08985930681228638,0.02995705604553223,0.01960808038711548,2,0.6767625746526855,0.02364687406007354,-0.2109477613701479,0.7049355976922614,0.3188621401786804,-0.9441715478897095,-0.08286648243665695,-1.473770141601562,-49.03665161132812,13.72601318359375,2
1596230820.658061,32,0,103152.8504740417,-1.55496133282891,1.296595417675797,1.216339243829213,-0.5867846012115479,0.5424113869667053,-0.4137434065341949,-0.1539514660835266,-0.06510454416275024,0.1604841351509094,2,0.6722157500473299,0.0336904713117846,-0.2130213276359816,0.7082463042099951,0.3341148793697357,-0.9378350377082825,-0.09398187696933746,-0.6681060791015625,-49.25919342041016,13.1070556640625,2
1596230820.705295,33,0,103152.8805730417,-1.514532597540558,1.284238264672839,1.197111106593398,-0.6727533340454102,1.058671951293945,-0.6581445336341858,-0.06389671564102173,0.02982258796691895,0.06730169057846069,2,0.6677942356991934,0.04959774396597139,-0.2092529035998113,0.7126037319817813,0.3501628339290619,-0.9309883713722229,-0.1031818464398384,-0.6098175048828125,-49.34537506103516,12.35467529296875,2
1596230820.718142,34,0,103152.9106720417,-1.479118791531428,1.278158311053661,1.171256147188411,-0.6155503988265991,0.6707475185394287,-0.6343598961830139,-0.02852892875671387,-0.1189910173416138,-0.1589823961257935,2,0.6627502354856594,0.06821822387904418,-0.2072584419340605,0.7163464559234494,0.3724569380283356,-0.921239972114563,-0.1122168004512787,0.184356689453125,-49.64224243164062,11.32723999023438,2
1596230820.765641,35,0,103152.9407710417,-1.439826607180096,1.265058047552054,1.144482837856977,-0.8541170954704285,0.9628524780273438,-1.023831129074097,-0.6355364322662354,-0.5441126227378845,0.1339847445487976,2,0.6560628579263641,0.08571915251768386,-0.2063486637303462,0.7208702810762885,0.3943401575088501,-0.9104963541030884,-0.1244675070047379,0.9519424438476562,-49.83094787597656,10.7076416015625,2
1596230820.778472,36,0,103152.9708710417,-1.378606569848963,1.243393653599598,1.077264320146554,-2.846886873245239,1.851087093353271,-2.823533773422241,-1.295923709869385,-1.283307313919067,0.1445165872573853,2,0.6397502519102457,0.1206066095923031,-0.2132497013173313,0.7284903357874939,0.4485746026039124,-0.880665123462677,-0.1523473262786865,2.958206176757812,-49.66218566894531,8.7071533203125,2
1596230820.826461,37,0,103153.0009700417,-1.276758883248496,1.242160453185857,0.9536563986116185,-3.244055509567261,3.185751438140869,-3.467978000640869,-1.91313910484314,-1.64368724822998,0.7044143080711365,2,0.6078252094450521,0.192767744139199,-0.2160758672952564,0.7393917107704442,0.5477344393730164,-0.8155369162559509,-0.1867782175540924,5.293685913085938,-49.49146270751953,6.415557861328125,2
1596230820.838661,38,0,103153.0310690417,-1.144615117861074,1.276325853460819,0.7928755599530541,-4.89143180847168,5.786785125732422,-4.904960155487061,-0.8241895437240601,-1.115866661071777,0.6835135221481323,2,0.5583249486004572,0.2939906586987087,-0.207876099358649,0.7474155928201193,0.6715912222862244,-0.7123742699623108,-0.2036854922771454,12.04120635986328,-48.41854858398438,1.184844970703125,2
1596230820.885739,39,0,103153.0611680417,-0.9848590450699458,1.375347995220185,0.6120505084396975,-6.121791362762451,7.529541969299316,-4.627134799957275,-0.1700133085250854,0.1474581956863403,1.086148500442505,2,0.4912830435076554,0.4232786264458298,-0.1798375778138812,0.739685365912558,0.8028883337974548,-0.5745469331741333,-0.1589523553848267,16.4996337890625,-46.84860992431641,-1.39984130859375,2
1596230820.898858,40,0,103153.0912670417,-0.7815125194494377,1.490907381601418,0.4509900601821787,-6.482193470001221,6.089091300964355,-4.409374713897705,0.4028152823448181,0.5452080965042114,0.9427701234817505,2,0.4037223166805649,0.5487220243227163,-0.1325540398059243,0.7199595312140095,0.8971453309059143,-0.435856819152832,-0.07182486355304718,25.37710571289062,-41.73057556152344,-4.691986083984375,2
1596230820.948234,41,0,103153.1213660417,-0.6001453040867942,1.549060716510645,0.3215302158667118,-5.095658302307129,2.72341513633728,-3.488744020462036,0.7257105112075806,0.1887993514537811,0.6489640474319458,2,0.3133638241782454,0.6256940669177709,-0.1015984967844308,0.7070980214654214,0.9485286474227905,-0.3160187304019928,-0.02062009647488594,32.85610961914062,-34.96259307861328,-7.498046875,2
1596230820.958987,42,0,103153.1514650417,-0.4494385819112082,1.537345310415922,0.2432044521935252,-4.714107513427734,-1.22540020942688,-1.399474620819092,0.2355315685272217,0.190350741147995,0.2117482423782349,2,0.2387694717635539,0.6532678398029779,-0.07678971088714123,0.7143763006217129,0.9700282216072083,-0.2408140003681183,-0.0324605368077755,34.95462036132812,-31.84295654296875,-9.4027099609375,2
1596230821.0065,43,0,103153.1815640417,-0.3148943799396646,1.426164983786067,0.2244471995809893,-4.009947299957275,-3.46462082862854,0.8251511454582214,-0.2904016375541687,0.4855132102966309,0.7952990531921387,2,0.1855811845184847,0.6287315547416561,-0.04549464363537892,0.7537814198554142,0.9647382497787476,-0.2225674688816071,-0.1405125111341476,34.75363159179688,-28.17341613769531,-16.96902465820312,2
1596230821.019266,44,0,103153.2116630417,-0.1853336938670781,1.296321116584617,0.2500334929803881,-4.048421382904053,-3.125623464584351,2.446005344390869,-0.4565273523330688,0.9176757335662842,1.055308222770691,2,0.1544058088706222,0.5872410672285505,0.001763595693349745,0.7945462060039371,0.9326357245445251,-0.2474364042282104,-0.2626135647296906,32.69419860839844,-27.260986328125,-21.34231567382812,2
1596230821.067782,45,0,103153.2417620417,-0.03403510521036122,1.152536439513903,0.2886763460355041,-3.932677030563354,-3.759944438934326,3.135858774185181,-0.5025689601898193,0.5264186263084412,0.4380879402160645,2,0.1297665443606292,0.5371019742415952,0.06424533083339926,0.8309961734650394,0.8759855628013611,-0.2846835851669312,-0.3893642127513885,26.64437866210938,-26.13048553466797,-29.474853515625,2
1596230821.079392,46,0,103153.2718610417,0.09659423123030551,1.023482723113141,0.3406707512757933,-1.71390700340271,-1.050549268722534,3.933707237243652,-0.4273901581764221,0.1851152181625366,0.2686746120452881,2,0.12432518763792,0.4891820273180189,0.1243974173998553,0.8542653879356299,0.8048510551452637,-0.3341193795204163,-0.4904883801937103,22.55878448486328,-25.77052307128906,-33.15225219726562,2
1596230821.121875,47,0,103153.3019610417,0.1972101858716224,1.050088773461096,0.4374676741827605,-0.5096303820610046,4.927245616912842,4.56179141998291,-0.5438864231109619,0.4861694872379303,0.6033588647842407,2,0.1386829076549325,0.5054158507557792,0.1913953469291947,0.8298733258098731,0.7857757210731506,-0.4236469864845276,-0.4506437480449677,19.19244384765625,-27.05046081542969,-34.2998046875,2
1596230821.139857,48,0,103153.3320600417,0.2869813383709424,1.179603547416029,0.545407695023794,-1.260412693023682,5.844909191131592,4.061760902404785,-0.7287718653678894,0.2020114660263062,0.8542323112487793,2,0.1449356134977063,0.5621455984896162,0.262712057098361,0.770693344528025,0.7903310656547546,-0.5187667012214661,-0.3259719908237457,19.98429107666016,-28.59126281738281,-32.517578125,2
1596230821.181878,49,0,103153.3621590417,0.3790283239736956,1.29732694706776,0.625923571610644,-1.438158392906189,5.622195243835449,2.521974802017212,-0.2898072004318237,-0.778357982635498,0.5172538757324219,2,0.1326751778029967,0.6107049054751919,0.3254936514455838,0.7095708091338402,0.780306875705719,-0.5858460068702698,-0.2188736349344254,22.76838684082031,-30.63841247558594,-28.74282836914062,2
1596230821.199772,50,0,103153.3922580417,0.4582791410470266,1.406638033932254,0.6836374813889163,-2.341260433197021,5.203622817993164,2.779402017593384,0.7778867483139038,-0.4357388019561768,1.105848789215088,2,0.1105711560883914,0.6514791698048327,0.3743427291458689,0.6505506883076525,0.7648574113845825,-0.6316172480583191,-0.1266978234052658,24.57398986816406,-30.98609161376953,-27.1075439453125,2
1596230821.244659,51,0,103153.4223570417,0.581826083093315,1.444122054252784,0.7880459729272828,-1.914754748344421,0.6182975769042969,4.438970565795898,0.6928147077560425,0.000715792179107666,-1.020084381103516,2,0.1009484238318497,0.6672791202595904,0.4418288456669212,0.5910456693370316,0.6995810270309448,-0.7089765667915344,-0.08909597992897034,25.76080322265625,-31.814208984375,-24.61093139648438,2
1596230821.260364,52,0,103153.4524560417,0.5072354457567378,1.576258766199504,0.8255041773316726,-0.3199416100978851,8.049695014953613,-2.613343000411987,3.049657821655273,0.1040264964103699,2.45712947845459,2,0.1108564574209708,0.6996878682485056,0.4373929103779384,0.5539270272196376,0.6781764030456543,-0.734889805316925,0.003704534145072103,23.77938079833984,-33.46311187744141,-24.47830200195312,2
1596230821.302506,53,0,103153.4825550417,0.6742524874024829,1.462112619054719,0.7949304024110545,-1.040859341621399,-2.785437822341919,0.3374970555305481,0.7438931465148926,1.64880895614624,-1.64139723777771,2,0.06832057006212933,0.6762763550428228,0.4709467346319752,0.5623092925932426,0.696202278137207,-0.7138148546218872,-0.07596518099308014,26.99835205078125,-31.90354156494141,-23.05838012695312,2
1596230821.320477,54,0,103153.5126540417,0.5357358072665086,1.463640817859009,0.8153541792868987,4.493048667907715,-2.558221101760864,0.4816438257694244,-0.31456458568573,0.7900802493095398,0.7909550666809082,2,0.1220759699595964,0.6696523368641873,0.436258572333366,0.5885078303959181,0.6816779375076294,-0.7279684543609619,-0.07332640886306763,25.68845367431641,-31.76704406738281,-24.583251953125,2
1596230821.363137,55,0,103153.5427530417,0.4915412092874524,1.432636593625678,0.8519054456111941,-1.016903519630432,-0.747209370136261,1.352614641189575,-0.488538920879364,-0.6641095280647278,1.38116466999054,2,0.1567924543848854,0.6557958069275953,0.4302615081128682,0.6001858235329116,0.6522752046585083,-0.7525365948677063,-0.09069596976041794,22.37464141845703,-35.24514770507812,-23.8199462890625,2
1596230821.38037,56,0,103153.5728520417,0.5200878637002915,1.436549435977368,0.8770311256668635,0.2627674639225006,1.043955326080322,0.3815177083015442,-0.4227859973907471,-0.7517191171646118,-0.3952574729919434,2,0.1557484423355356,0.6579894073141688,0.4453075084585465,0.5869356168349738,0.633682906627655,-0.7688438892364502,-0.08558472245931625,20.99859619140625,-35.64842987060547,-24.34182739257812,2
1596230821.423874,57,0,103153.6029510417,0.5254809898068524,1.463763318558022,0.8763817052616294,-0.7014238238334656,1.230193614959717,-0.2238639146089554,0.02266234159469604,0.2187000513076782,0.06743317842483521,2,0.1476435939371256,0.6663479623286984,0.4487791426627468,0.5768699439758215,0.6362735033035278,-0.7684284448623657,-0.06836352497339249,21.4769287109375,-36.03168487548828,-23.85098266601562,2
1596230821.440849,58,0,103153.6330500417,0.5330103533729603,1.480925779396492,0.8793186230056854,0.7589057087898254,-0.05500617995858192,0.6244636178016663,0.2258300185203552,0.1298730373382568,-0.4515575766563416,2,0.1423164313867654,0.6716624463911038,0.4529202698500022,0.5687519191254733,0.6351026296615601,-0.7703045606613159,-0.05723118409514427,22.302001953125,-35.58901977539062,-23.19589233398438,2
1596230821.481741,59,0,103153.6631490417,0.4917276357386018,1.489454267827418,0.909962518133168,0.601571261882782,-1.271526575088501,1.064212918281555,0.136668860912323,-0.2454777359962463,-0.08482813835144043,2,0.1652119615205064,0.6691559280734993,0.4496419472324494,0.5681174173741995,0.6117458343505859,-0.7894807457923889,-0.04987070336937904,21.69057464599609,-36.38829040527344,-22.96356201171875,2
1596230821.500786,60,0,103153.6932490417,0.4840167793816166,1.455026193389953,0.9399056841589738,0.1602382957935333,-1.108676552772522,0.8564278483390808,-0.2681610584259033,-0.3074238300323486,-0.02743220329284668,2,0.1862473298483449,0.6566915731952447,0.4519489157432759,0.5742911365958795,0.585915744304657,-0.8075024485588074,-0.06813622266054153,18.86274719238281,-37.48785400390625,-23.427978515625,2
1596230821.540072,61,0,103153.7233480417,0.47506795968621,1.450604212164098,0.9593224820202978,0.169523686170578,0.4636479616165161,0.3289563953876495,-0.5399074554443359,-0.004708647727966309,0.1855700612068176,2,0.197149360789073,0.6532346446136251,0.4537408531359049,0.5731804541923249,0.5699332356452942,-0.8188028335571289,-0.06883325427770615,17.83888244628906,-37.90738677978516,-23.65679931640625,2
1596230821.560973,62,0,103153.7534470417,0.4747149035741077,1.477611955709588,0.9575218003875465,0.001715977676212788,0.907913863658905,-0.4120873510837555,-0.2861865758895874,-0.1341301202774048,0.001639723777770996,2,0.1904811847542834,0.6610141127805537,0.4558113011307018,0.5648126135957792,0.5730512738227844,-0.8177677392959595,-0.05355452373623848,18.04274749755859,-38.25846862792969,-22.96017456054688,2
1596230821.603,63,0,103153.7835455,0.4690366400884611,1.499442573784379,0.9441026715686587,-0.015739805996418,0.2393931448459625,-0.3125329911708832,0.1523763537406921,-0.202000617980957,-0.1330223083496094,2,0.1826551211945931,0.6676312263226771,0.4528469676392656,0.5619920476044301,0.5849772691726685,-0.8099709749221802,-0.04181130602955818,18.86423492431641,-38.03920745849609,-22.53851318359375,2
1596230821.621131,64,0,103153.8136445,0.474736715727348,1.495500296803712,0.943862619947318,-0.1228228434920311,-0.1050115749239922,0.2654114067554474,0.1529160737991333,-0.007563292980194092,-0.07998025417327881,2,0.1815621144622916,0.6670602145076462,0.4540284252817429,0.5620710039217371,0.5850017070770264,-0.8098301887512207,-0.04413173720240593,19.43940734863281,-37.96971893310547,-22.57138061523438,2
1596230821.661168,65,0,103153.8437435,0.4779055580212665,1.483504501511014,0.9518754233352436,-0.001742193475365639,-0.4690636098384857,0.1375551223754883,-0.1922275424003601,-0.007188320159912109,-0.01515626907348633,2,0.1860762742174624,0.6633900166561206,0.4558483565710931,0.5634637701057607,0.5779473781585693,-0.8145049810409546,-0.05057861283421516,18.97650909423828,-37.96394348144531,-22.72543334960938,2
1596230821.68324,66,0,103153.8738425,0.4808879998594228,1.470538468346524,0.9468353164487118,-0.2024973332881927,-0.0538436695933342,-0.4488036036491394,-0.2519670128822327,0.009246170520782471,0.187157154083252,2,0.1862451062832368,0.6603588134520345,0.4542217014897074,0.5682618680194561,0.5813203454017639,-0.8115705847740173,-0.05847799405455589,18.53097534179688,-38.15691375732422,-23.06179809570312,2
1596230821.724999,67,0,103153.9039415,0.4915400790812799,1.461634538416117,0.9292208587987167,-0.2420468479394913,-0.1646299958229065,-0.5533173680305481,0.01689410209655762,0.04624772071838379,0.01289474964141846,2,0.1784385634796919,0.6599697930602515,0.452058801171314,0.572924343315393,0.5948960781097412,-0.8011538982391357,-0.0651990994811058,18.80111694335938,-37.73896026611328,-23.2044677734375,2
1596230821.741854,68,0,103153.9340405,0.4884784106951219,1.454121928626944,0.9174392958704336,0.1568222790956497,-0.3501255810260773,-0.2215887606143951,0.06328976154327393,0.02290010452270508,0.1224294900894165,2,0.1768969358751334,0.6582759990999151,0.4475765060060709,0.5788397146391032,0.6037227511405945,-0.7940477132797241,-0.07076036930084229,19.29020690917969,-37.23999786376953,-23.62405395507812,2
1596230821.782581,69,0,103153.9641395,0.4807678333964078,1.45172147447191,0.911637836978222,0.09192050993442535,-0.206705316901207,-0.3329560160636902,0.06896913051605225,-0.1378538608551025,0.209824800491333,2,0.1778747603582752,0.6572540489679455,0.4436760527534966,0.5826912462916429,0.6081148386001587,-0.7905079126358032,-0.072755366563797,19.37462615966797,-37.21554565429688,-23.55831909179688,2
1596230821.801782,70,0,103153.9942385,0.4773128683787122,1.452061640125633,0.900209161438141,-0.01530625857412815,0.005928870290517807,-0.2438296675682068,0.3820189237594604,0.09688043594360352,0.3693563938140869,2,0.1748086922257064,0.657749918940165,0.4398268151932607,0.5859685883929049,0.6170704960823059,-0.7834569215774536,-0.07361393421888351,19.76170349121094,-37.11466979980469,-23.71426391601562,2
1596230821.842016,71,0,103154.0243375,0.4759735771948276,1.441475431689484,0.9076756087832746,0.2074792683124542,-0.8898739814758301,0.7507740259170532,0.3828518390655518,0.1932518482208252,0.4071745872497559,2,0.1802784010159296,0.6540695087154017,0.4403655457394027,0.5880229397258436,0.6104389429092407,-0.7880750298500061,-0.07938554883003235,19.47097015380859,-37.24361419677734,-24.065673828125,2
1596230821.862153,72,0,103154.0544375,0.4554506268413885,1.416565923449937,0.9338429560114995,0.8282265067100525,-2.015423774719238,0.6614739894866943,0.1487883329391479,0.1714032888412476,0.492438793182373,2,0.2019010587712551,0.643081181684554,0.4383777133804221,0.5945648606734337,0.5876891016960144,-0.8039114475250244,-0.09136511385440826,18.42242431640625,-37.73107147216797,-24.07208251953125,2
1596230821.901661,73,0,103154.0845365,0.3942250769510869,1.372413643390753,0.9559993074746738,1.838372111320496,-4.21605110168457,0.3689242899417877,-0.03893274068832397,0.3013516664505005,0.3708915114402771,2,0.2388160879416396,0.6213924663671572,0.4203476840693237,0.6165597464018348,0.565479576587677,-0.8168905377388,-0.113676555454731,14.82943725585938,-39.22630310058594,-24.58953857421875,2
1596230821.922192,74,0,103154.1146355,0.273593342500363,1.307824595398501,0.9710393273931777,2.764203548431396,-6.723795890808105,-0.5737362504005432,0.07096284627914429,0.1915366649627686,0.2707754373550415,2,0.2935719222024213,0.5834825065001099,0.3769501875633655,0.6567132094520486,0.5450373291969299,-0.8254727721214294,-0.1467273831367493,12.38396453857422,-40.31519317626953,-24.16619873046875,2
1596230821.963299,75,0,103154.1447345,0.07829619247992312,1.226723328082318,0.9658680579213057,4.068999290466309,-9.242263793945312,-1.850828886032104,0.8992746472358704,0.1848280429840088,0.2430950403213501,2,0.3594882879969206,0.52426097358096,0.2954451380713442,0.7131834320218601,0.5353703498840332,-0.8225429058074951,-0.1918372064828873,6.867767333984375,-42.86177062988281,-22.64340209960938,2
1596230821.984116,76,0,103154.1748335,-0.1541941568243431,1.119385615608532,0.9634067845401449,3.784048318862915,-9.933908462524414,-1.484171509742737,1.006256341934204,-0.2615242600440979,0.9155305624008179,2,0.4276727334439704,0.4388743009938236,0.1874000791588724,0.7677021012345248,0.5135576128959656,-0.8211406469345093,-0.2489707618951797,3.970787048339844,-44.56949615478516,-20.57733154296875,2
1596230822.020576,77,0,103154.2049325,-0.3305509262605128,0.99338244870031,0.9712866842203566,2.192730665206909,-7.297900199890137,-1.732394337654114,-0.5697120428085327,-0.6531548500061035,0.7587815523147583,2,0.4741158375206176,0.3481625302908047,0.09147827473533243,0.8035101517483985,0.4727616608142853,-0.8256123661994934,-0.3079940378665924,-0.2919464111328125,-46.98326873779297,-16.26556396484375,2
1596230822.042606,78,0,103154.2350315,-0.4875953626911915,0.9795126150853022,0.9356268410756325,1.767523884773254,-2.413602590560913,-3.424433469772339,-0.9656616449356079,0.1463698744773865,0.2698512673377991,2,0.4875116243524071,0.3113964729348089,0.0157253712795361,0.8155472195616615,0.4925844669342041,-0.8049711585044861,-0.3307293057441711,-0.3365020751953125,-47.53499603271484,-14.77459716796875,2
1596230822.083935,79,0,103154.2651305,-0.6579504556773491,1.077119639263206,0.8782021756882371,2.130980968475342,-0.546017050743103,-3.124395608901978,-0.3345909118652344,0.2471320033073425,0.005552351474761963,2,0.4953626531535504,0.3214427326251504,-0.04467729318159738,0.805787967108182,0.5622922778129578,-0.7695921659469604,-0.3025808334350586,4.386856079101562,-48.01754760742188,-11.35250854492188,2
1596230822.10278,80,0,103154.2952295,-0.7993349395246875,1.161990614195763,0.8422609379579618,2.396622180938721,-1.224988222122192,-1.616121292114258,0.2465048432350159,0.02558344602584839,-0.1306568384170532,2,0.5096926291396054,0.3284594082988034,-0.09016010121530732,0.7900626067815005,0.6109148859977722,-0.7461503148078918,-0.2646556794643402,6.714378356933594,-48.05785369873047,-9.3443603515625,2
1596230822.140901,81,0,103154.3253285,-0.9217366289285019,1.191722612537709,0.8461866020964961,2.697490930557251,-2.929237604141235,-0.3052915036678314,0.4225356578826904,-0.05830574035644531,-0.005938351154327393,2,0.5319521355344207,0.3072149271217435,-0.1292410442722151,0.7784231616094095,0.6157865524291992,-0.7487581968307495,-0.2452918291091919,9.20697021484375,-48.31507110595703,-5.776947021484375,2
1596230822.162911,82,0,103154.3554275,-1.033456654064702,1.166472502301573,0.8783605090000945,2.375973224639893,-4.182111263275146,0.4172551929950714,0.03335446119308472,-0.0943337082862854,0.2861787676811218,2,0.5548300257741916,0.2580476324245153,-0.1696374638091046,0.7725269829899944,0.586937427520752,-0.7696932554244995,-0.2511501312255859,9.143882751464844,-48.72163391113281,-3.95068359375,2
1596230822.202635,83,0,103154.3855265,-1.101345572577302,1.092423373544201,0.9225882137737405,1.597066164016724,-3.862842798233032,0.9710647463798523,-0.405775785446167,-0.1593015789985657,0.219806969165802,2,0.5675178364924569,0.197377056296669,-0.2033575175547797,0.7730533786897794,0.5359840393066406,-0.7971669435501099,-0.2779316008090973,7.880592346191406,-49.37908172607422,-1.308807373046875,2
1596230822.223174,84,0,103154.4156265,-1.150326101767111,1.044363890861713,0.9732580568534298,1.716478586196899,-1.942039608955383,1.021617293357849,-0.6350560188293457,-0.02531999349594116,0.2361143827438354,2,0.5799330693743068,0.1494511492869679,-0.2210249697281816,0.7697336371066064,0.4864345192909241,-0.8267230987548828,-0.2826839685440063,6.502471923828125,-49.65634918212891,-0.645050048828125,2
1596230822.265219,85,0,103154.4457255,-1.19379189627251,1.051787865522319,1.02545434582951,1.274230122566223,-0.08212284743785858,1.231949210166931,-0.6241176128387451,-0.0713202953338623,0.2856429815292358,2,0.5967797610726474,0.123323760296994,-0.2199448347327692,0.7617540499203924,0.4504019916057587,-0.854949951171875,-0.2572903335094452,4.977508544921875,-50.08538818359375,1.992950439453125,2
1596230822.284471,86,0,103154.4758245,-1.204104769148685,1.072973783459055,1.075365355067294,0.6374491453170776,0.4430270493030548,1.48552393913269,-0.3729257881641388,-0.1321336030960083,0.282127857208252,2,0.6114188024260758,0.1125143611737644,-0.2023431961668434,0.7566801430930247,0.417707622051239,-0.8797639012336731,-0.2270151376724243,2.32720947265625,-50.22139739990234,4.01776123046875,2
1596230822.320476,87,0,103154.5059235,-1.191835125727546,1.060968224066738,1.13074982674167,1.114220261573792,-0.9885977506637573,1.842197179794312,-0.1835280060768127,-0.2588458657264709,0.01602107286453247,2,0.6222361858829544,0.09421715804364449,-0.1844587650542371,0.7549305541754893,0.371808648109436,-0.9047318696975708,-0.207890510559082,0.6258316040039062,-50.34623718261719,4.626983642578125,2
1596230822.343514,88,0,103154.5360225,-1.218475630857427,1.037972240873591,1.188745115317895,1.067705750465393,-1.697622060775757,1.097130179405212,0.06172850728034973,-0.3610745668411255,0.1572016477584839,2,0.6339221078069913,0.05874852671675093,-0.1838919853045344,0.7489158374924632,0.32114177942276,-0.9279018640518188,-0.1893827468156815,-2.218650817871094,-50.20474243164062,6.810028076171875,2
1596230822.382218,89,0,103154.5661215,-1.199942535004708,0.959377762940955,1.222381214581423,-0.1491680294275284,-1.536521553993225,0.9633926749229431,-0.8006258010864258,-0.5169259905815125,-0.4630041718482971,2,0.6335692091824214,0.02451082400288651,-0.1916374663095613,0.7491757475237807,0.2795570194721222,-0.9399150013923645,-0.1959785521030426,-2.982490539550781,-50.08638000488281,7.474853515625,2
1596230822.403799,90,0,103154.5962205,-1.174222988057737,0.9524133901681777,1.235708296074052,0.4796846210956573,2.111471891403198,0.0951874703168869,-1.002135515213013,0.08411359786987305,-0.06913799047470093,2,0.6356169443614864,0.02589196105365602,-0.1802220159684324,0.7502269845727183,0.267954021692276,-0.9443813562393188,-0.1906414180994034,-4.25946044921875,-50.12038421630859,7.48150634765625,2
1596230822.444026,91,0,103154.6263195,-1.22475366937105,1.06897584089347,1.234924047472903,0.116457924246788,1.984253406524658,-0.7888038158416748,-0.2876631617546082,0.2475936412811279,0.2937070727348328,2,0.6464277427343127,0.05348286356663912,-0.1619750177935871,0.7436631225959102,0.2889567613601685,-0.9441231489181519,-0.1585415154695511,-4.478866577148438,-49.79998016357422,7.881256103515625,2
1596230822.466666,92,0,103154.6564185,-1.276356395190865,1.148802634899471,1.210508268224594,0.636702835559845,-0.07382327318191528,-0.8019846081733704,0.481901615858078,-0.3891592621803284,0.1081770062446594,2,0.6498307986885495,0.07431383418485425,-0.1629882993319763,0.7386691136190813,0.3216162919998169,-0.9357953071594238,-0.1443947702646255,-3.383399963378906,-49.92807006835938,8.20538330078125,2
1596230822.503468,93,0,103154.6865175,-1.324855030032851,1.173216324535294,1.21566442334645,0.241628885269165,-0.9851732850074768,0.5495757460594177,0.6404253244400024,0.03041064739227295,-0.06202989816665649,2,0.6544912633177652,0.06577066602452564,-0.1712083903291854,0.7334869583664343,0.3205926418304443,-0.9376006126403809,-0.1346308141946793,-2.98077392578125,-49.95033264160156,8.82220458984375,2
1596230822.524125,94,0,103154.7166165,-1.331108135796128,1.149358622991093,1.240174860836767,0.6289905309677124,-1.109495878219604,0.7630047798156738,-0.09216716885566711,0.1428444981575012,-0.03320306539535522,2,0.656821231772298,0.04676591117839907,-0.1733557956062803,0.7323568545609364,0.2962262034416199,-0.9458407759666443,-0.1327976435422897,-3.31396484375,-49.76251220703125,9.672943115234375,2
1596230822.562273,95,0,103154.7467155,-1.355833776715874,1.148701251159649,1.262029385049362,0.2826825678348541,-0.2928001880645752,0.1579913794994354,-0.5815746784210205,-0.07205557823181152,0.3650857210159302,2,0.6609014069604847,0.03103067586283936,-0.1754949485937697,0.7290046930321398,0.2772127389907837,-0.9527090191841125,-0.1244928538799286,-4.048377990722656,-49.79779815673828,10.15341186523438,2
1596230822.58538,96,0,103154.7768145,-1.379007582838795,1.177291176478305,1.251365262586513,0.05555488169193268,0.5824702978134155,-0.8433191180229187,-0.1622816920280457,-0.02241700887680054,0.04702383279800415,2,0.6621172493901775,0.03738442050046792,-0.1779654775699621,0.7270015288098233,0.2900250852108002,-0.9494142532348633,-0.1204063072800636,-4.053924560546875,-49.59040832519531,10.541748046875,2
1596230822.623319,97,0,103154.80691375,-1.406247231056761,1.226811381726728,1.232022122443204,-0.05790425464510918,0.7798724174499512,-0.3580476641654968,0.2590559720993042,0.0795522928237915,0.2548263669013977,2,0.6641998771251146,0.05292167983409063,-0.1778184076600219,0.7241672838106898,0.3128622174263,-0.943162739276886,-0.1120756417512894,-3.356216430664062,-49.58731079101562,10.5028076171875,2
1596230822.644608,98,0,103154.83701375,-1.390754291735321,1.220954850512362,1.234130532749412,-0.08969970047473907,-0.5604933500289917,0.4686781466007233,0.1394590735435486,-0.1397865414619446,-0.1114102602005005,2,0.6635800830637635,0.05522078162035149,-0.1734478873997571,0.7256224367312563,0.3103320002555847,-0.9438613653182983,-0.1132242754101753,-3.102867126464844,-49.62745666503906,10.58978271484375,2
1596230822.688474,99,0,103154.86711275,-1.382578840048562,1.193816331946299,1.244034608724365,0.03277917206287384,-0.1319585591554642,0.06678266823291779,0.2666895985603333,0.2197303771972656,0.01944369077682495,2,0.6625131923662196,0.04470083971427954,-0.1762031859779503,0.7266569148366192,0.2984382212162018,-0.9470867514610291,-0.1181562095880508,-3.459159851074219,-49.70616912841797,10.63528442382812,2
1596230822.70478,100,0,103154.89721175,-1.382669877901301,1.191788692014237,1.244613396371239,0.1234955862164497,-0.5292431116104126,0.2445957809686661,0.3114098906517029,-0.02175009250640869,-0.1498569250106812,2,0.662425790366301,0.04373699263727265,-0.1767172019716934,0.7266704552527599,0.2976888120174408,-0.9472723603248596,-0.118558295071125,-3.468132019042969,-49.67418670654297,10.56198120117188,2
1596230822.745153,101,0,103154.92731075,-1.372645853460649,1.154773246028367,1.26421953226219,0.07163098454475403,-1.003080129623413,0.8515043258666992,0.08407440781593323,-0.1212030053138733,0.1215548515319824,2,0.6620365378558762,0.02694026574440839,-0.1788920831959586,0.7273096059034366,0.2760540246963501,-0.9533722400665283,-0.1219636872410774,-4.366470336914062,-49.75214385986328,10.82815551757812,2
1596230822.766751,102,0,103154.95740975,-1.336096503303279,1.093065508682307,1.281739245907905,-0.1657665073871613,-0.6800535321235657,0.3760726749897003,-0.2070832848548889,0.02832555770874023,0.2522014379501343,2,0.6590594213700989,0.01062893311821636,-0.1802678854581518,0.7300898513072011,0.2531346380710602,-0.958513081073761,-0.1310554146766663,-4.830215454101562,-49.4122314453125,10.94976806640625,2
1596230822.803939,103,0,103154.98750875,-1.299025498187563,1.050930251667698,1.281900360694912,-0.3641696572303772,0.06744834035634995,0.1842076033353806,-0.03138440847396851,0.164450466632843,0.07995313405990601,2,0.6551211294616149,0.007336338282615734,-0.1804942916651882,0.7336103840483511,0.2472552806138992,-0.958558976650238,-0.1415249705314636,-5.1253662109375,-49.61588287353516,10.37176513671875,2
1596230822.825156,104,0,103155.01760775,-1.254781979798039,1.006019840222231,1.290740943189286,-0.1508570909500122,-0.2107273489236832,0.6042288541793823,-0.1321858465671539,-0.1685904264450073,-0.05273282527923584,2,0.652704766587242,0.002408909595963876,-0.1761398582603697,0.7368482585806342,0.2334846556186676,-0.9610401391983032,-0.1479413658380508,-5.365127563476562,-49.51139068603516,10.11868286132812,2
1596230822.866476,105,0,103155.04770675,-1.202993741223241,0.9540299351924829,1.29237255746491,-0.4966022074222565,0.05688893795013428,-0.01664583198726177,-0.1391328275203705,0.04640400409698486,0.1097054481506348,2,0.6484719924383954,-0.0004767666332612386,-0.173414230110677,0.7412228280322747,0.2242017686367035,-0.9614898562431335,-0.1589676886796951,-6.082481384277344,-49.62275695800781,9.698638916015625,2
1596230822.885525,106,0,103155.07780575,-1.16365001797379,0.9187534185600555,1.285407486844422,-0.3907236158847809,0.04113633185625076,0.2038710564374924,-0.2397876083850861,0.01891177892684937,0.03582948446273804,2,0.6438792636758411,0.00129264993695194,-0.1722727218441661,0.7454795375980171,0.2237729579210281,-0.9595522284507751,-0.1708356440067291,-6.238609313964844,-49.56189727783203,9.227386474609375,2
1596230822.924812,107,0,103155.10790475,-1.122941499473372,0.8811598641866035,1.282333122236639,-0.2727054357528687,0.1367524266242981,-0.1012474745512009,-0.3689084351062775,0.05449825525283813,-0.06298035383224487,2,0.6399200162773682,0.001245082989257573,-0.1700235462901478,0.7493948902274107,0.2194690555334091,-0.9586821794509888,-0.1810016483068466,-6.332466125488281,-49.83864593505859,8.479766845703125,2
1596230822.945705,108,0,103155.13800375,-1.136137840894415,0.9037695145983288,1.266930040407619,-0.2342576533555984,0.4483062028884888,-0.7156500220298767,0.07049736380577087,0.01176357269287109,-0.1634321212768555,2,0.6382341362288697,0.01016426695673045,-0.1722155921719098,0.750263596152277,0.2350794970989227,-0.9541867971420288,-0.1851077526807785,-6.151214599609375,-49.80671691894531,8.2994384765625,2
1596230822.982754,109,0,103155.16810275,-1.141762950022823,0.9109771475122066,1.251112897137439,-0.2753643691539764,-0.342305600643158,-0.09691936522722244,0.1016942858695984,-0.04349362850189209,-0.05110925436019897,2,0.6351605811292864,0.01589685586144068,-0.1766495237461994,0.7517400523313934,0.248302236199379,-0.949334979057312,-0.1926366537809372,-5.270347595214844,-49.90303039550781,7.9185791015625,2
1596230823.006088,110,0,103155.19820175,-1.127575037645753,0.8886409384007791,1.246273781576488,-0.1711689233779907,-0.2774562835693359,-0.1346230804920197,0.04730021953582764,0.1328403949737549,0.06875640153884888,2,0.6319057104439576,0.01345296535394541,-0.1797893130518885,0.7537837188009036,0.2475010454654694,-0.9478030800819397,-0.2010283768177032,-5.035179138183594,-50.15904235839844,7.58770751953125,2
1596230823.042892,111,0,103155.22830075,-1.137832716817363,0.8915400576086039,1.237712373435752,-0.05839633941650391,-0.069585882127285,-0.3318045437335968,0.1262570023536682,-0.03504723310470581,-0.05091094970703125,2,0.6301639510673337,0.0139001951842424,-0.1852120282864235,0.7539208469583616,0.2543871700763702,-0.9450384974479675,-0.205400362610817,-4.709335327148438,-50.19825744628906,7.080596923828125,2
1596230823.066898,112,0,103155.25840075,-1.132133783663964,0.8806687496639748,1.230276677605346,-0.2839394807815552,-0.3260029256343842,0.01640384085476398,-0.09911817312240601,-0.08439803123474121,0.02086234092712402,2,0.6272940343644924,0.01383956284770618,-0.188619847068088,0.7554687455033278,0.2575509250164032,-0.9425812363624573,-0.2126213163137436,-4.39715576171875,-50.05049896240234,7.211578369140625,2
1596230823.103217,113,0,103155.28849975,-1.122170844990358,0.8662660437177654,1.224589044154124,-0.1475386619567871,-0.06362554430961609,-0.2532909214496613,-0.01471996307373047,0.1134595274925232,0.05733710527420044,2,0.6244490084438988,0.01322155957752758,-0.1909833165826943,0.7572409033512475,0.2585425078868866,-0.9406664967536926,-0.2197772562503815,-4.520111083984375,-50.44728851318359,6.657440185546875,2
1596230823.126129,114,0,103155.31859875,-1.127378847986232,0.8684453418308742,1.21539177323229,-0.1620227694511414,-0.1558837592601776,-0.1283449232578278,0.1240008175373077,-0.05276948213577271,-0.03634828329086304,2,0.6223929036400647,0.01518395342445955,-0.1948913407600147,0.7579008611261101,0.2656138241291046,-0.9375057816505432,-0.2247930467128754,-4.0697021484375,-50.15689086914062,6.64178466796875,2
1596230823.163281,115,0,103155.34869775,-1.11123674628844,0.8459498120927709,1.212910453645094,-0.2297413200139999,-0.3259638547897339,0.07552888989448547,-0.1164663434028625,0.01449799537658691,0.04744678735733032,2,0.6194513171297553,0.01240057422994717,-0.1964506622746457,0.7599561580006075,0.2622310221195221,-0.9366394877433777,-0.2322525829076767,-3.857673645019531,-50.38134002685547,6.378326416015625,2
1596230823.186593,116,0,103155.37879675,-1.105240317626966,0.834079036927995,1.204722115811656,-0.2332194149494171,-0.101926825940609,-0.308608740568161,0.02348089218139648,0.04679101705551147,0.09420734643936157,2,0.6161211013440014,0.01216226198330389,-0.2001222701351531,0.7617071224619686,0.2651272714138031,-0.9337397813796997,-0.2404937297105789,-3.943840026855469,-50.46572113037109,6.16143798828125,2
1596230823.22244,117,0,103155.40889575,-1.099433075208923,0.8225870422389172,1.197429740659644,-0.1460587382316589,-0.3513813316822052,0.09373772144317627,0.160500168800354,-0.007653653621673584,-0.1851549744606018,2,0.6130151033344884,0.0117138163580669,-0.2034585965851126,0.7633345435868868,0.2673295140266418,-0.9311046600341797,-0.2481505423784256,-3.551620483398438,-50.28729248046875,5.50054931640625,2
1596230823.246597,118,0,103155.43899475,-1.086823209394896,0.7993510046691863,1.200108871473227,0.005688740871846676,-0.3273154497146606,0.1501503586769104,0.1203191876411438,0.04208546876907349,-0.06151914596557617,2,0.611299940292353,0.005916108211917626,-0.2050209777855427,0.7643583140214646,0.2597026824951172,-0.9320785403251648,-0.2525547742843628,-3.466728210449219,-50.4029541015625,5.489105224609375,2
1596230823.285548,119,0,103155.46909375,-1.075238741382877,0.7794756694575677,1.201620129892237,-0.1359060406684875,-0.3464009165763855,0.1567678153514862,0.00230252742767334,-0.03168618679046631,0.07051551342010498,2,0.6096440811787665,0.00141426066596595,-0.2062490285877726,0.7653714172827057,0.2536418735980988,-0.9326249361038208,-0.2566641867160797,-3.681686401367188,-50.43027496337891,5.47637939453125,2
1596230823.306741,120,0,103155.49919275,-1.057860424886861,0.7505084151073925,1.203201463011547,-0.037076186388731,-0.4617000222206116,0.1755000650882721,-0.08574381470680237,0.03941726684570312,-0.01663941144943237,2,0.6070952201750878,-0.004847459526444359,-0.2079826784227855,0.7669126492485701,0.2450954169034958,-0.9331943988800049,-0.2628237903118134,-4.073783874511719,-50.44382476806641,5.455230712890625,2
1596230823.33985,121,0,103155.52929175,-1.047784743195695,0.7311296272751263,1.204735147467371,-0.08237078785896301,-0.1347187012434006,0.08268752694129944,-0.02614426612854004,0.005414068698883057,0.0006858110427856445,2,0.6055391917503586,-0.009659483778558298,-0.2095908050770603,0.7676591232794651,0.2390005141496658,-0.9337444305419922,-0.2664579749107361,-4.112350463867188,-50.36456298828125,5.22857666015625,2
1596230823.366836,122,0,103155.55939075,-1.0334881972191,0.7156773510247051,1.204426269563242,-0.04979436099529266,-0.2130339592695236,0.1965494453907013,-0.1283346116542816,-0.04703569412231445,-0.05257183313369751,2,0.6039092650472161,-0.01118735878039834,-0.2088500950546562,0.769122892734441,0.2350441068410873,-0.9336338639259338,-0.2703368961811066,-4.276885986328125,-50.36296081542969,4.915496826171875,2
1596230823.402041,123,0,103155.58948975,-1.031250794047103,0.7066134937834893,1.206993534517476,-0.1751864850521088,-0.1360287219285965,-0.286007434129715,-0.08172088861465454,0.1516782641410828,0.04108035564422607,2,0.6037115900295991,-0.01470664789614615,-0.2100692891821225,0.7688866830324785,0.2310270369052887,-0.934550404548645,-0.2706320583820343,-4.264694213867188,-50.37042236328125,5.016326904296875,2
1596230823.427011,124,0,103155.61958875,-1.035370029986807,0.7049536427732253,1.19835439415499,-0.06080888956785202,-0.1755644679069519,-0.04002832621335983,0.137835681438446,-0.009722054004669189,-0.036490797996521,2,0.6010168599858005,-0.01420044561679215,-0.2143568772740883,0.7698233289774363,0.2358005195856094,-0.9314415454864502,-0.2771541774272919,-3.956489562988281,-50.30466461181641,4.98052978515625,2
1596230823.463062,125,0,103155.64968775,-1.028974729245359,0.6921536536645609,1.198407890054114,-0.09849429875612259,-0.3122998178005219,0.07492715865373611,-0.008998692035675049,0.01727521419525146,0.008667290210723877,2,0.5997062233976542,-0.01722401601815216,-0.2157231378269851,0.7704020051313443,0.2322021871805191,-0.931460976600647,-0.28011155128479,-3.971122741699219,-50.34152221679688,4.791748046875,2
1596230823.487597,126,0,103155.67978675,-1.026104575063978,0.6853686075743732,1.196261359556619,-0.03509049117565155,-0.002785618649795651,-0.1141300871968269,-0.1181205809116364,0.03265488147735596,0.03492867946624756,2,0.5983709929684042,-0.01839098841249756,-0.217189859029441,0.7710009245932109,0.2315612882375717,-0.9306778311729431,-0.2832278609275818,-4.074012756347656,-50.48908996582031,4.74554443359375,2
1596230823.527132,127,0,103155.70988675,-1.026961760423271,0.6894051547882466,1.192019603121473,-0.1755433231592178,0.1350579410791397,-0.005701409187167883,-0.005625247955322266,-0.06411111354827881,0.01144474744796753,2,0.5975609339393128,-0.0159297008185412,-0.2173796808392499,0.7716301718592424,0.2352115362882614,-0.9291176795959473,-0.2853343486785889,-3.913681030273438,-50.41029357910156,4.47735595703125,2
1596230823.551337,128,0,103155.73998575,-1.016061415733049,0.6810866692210772,1.18992190244803,-0.1043476760387421,0.0140390656888485,0.04165780171751976,-0.01768380403518677,0.02950632572174072,-0.02639847993850708,2,0.5961275403513299,-0.0153169591753102,-0.2161779971640251,0.7730875502197898,0.2340566217899323,-0.928339958190918,-0.2887946963310242,-3.839805603027344,-50.42964935302734,4.336639404296875,2
1596230823.581718,129,0,103155.77008475,-1.011713776970855,0.6789113455118534,1.187325776940612,-0.1171150207519531,0.09490235894918442,-0.03737508505582809,0.07794752717018127,0.04074674844741821,0.03322291374206543,2,0.5951559613936175,-0.01415933109158135,-0.2157905700922884,0.7739659072054212,0.2349404096603394,-0.9273717403411865,-0.2911777794361115,-3.722343444824219,-50.6160888671875,4.2275390625,2
1596230823.607963,130,0,103155.80018375,-1.003304294102567,0.6725249974093321,1.185187609535962,-0.1327310502529144,-0.05162331089377403,0.09367598593235016,0.04474183917045593,-0.01753091812133789,-0.02471053600311279,2,0.5938896948252224,-0.0135557303173317,-0.2149615635875634,0.7751790759346313,0.2343106716871262,-0.9265696406364441,-0.2942225337028503,-3.762001037597656,-50.54693603515625,3.894317626953125,2
1596230823.642341,131,0,103155.83028275,-0.9948797269606972,0.66092689193307,1.183894158448148,-0.04497366771101952,-0.181435152888298,-0.03321729600429535,-0.05489975214004517,0.04430681467056274,-0.04713946580886841,2,0.5923137376034415,-0.0152090950484049,-0.2154511025035129,0.7762176434051569,0.2316181659698486,-0.9260823726654053,-0.2978662252426147,-4.01123046875,-50.71937561035156,4.039215087890625,2
1596230823.669748,132,0,103155.86038175,-0.9997044248325642,0.6630123618961208,1.182077709193136,-0.02448086068034172,-0.01283374428749084,-0.04613693431019783,0.03880441188812256,0.01696836948394775,0.009988546371459961,2,0.5919548656531093,-0.01534262458585167,-0.2171501955335942,0.7760153793760878,0.2332739979028702,-0.9253954887390137,-0.2987080812454224,-4.093978881835938,-50.32958221435547,3.93145751953125,2
1596230823.70098,133,0,103155.89048075,-1.001838634744211,0.6586548335608744,1.184392687357244,0.1282712072134018,-0.3239109218120575,0.1226385161280632,0.005277633666992188,0.01291173696517944,-0.05237853527069092,2,0.5921591220538978,-0.01828434923898808,-0.2187013840503902,0.7753597901903564,0.2306581437587738,-0.9262703657150269,-0.2980265021324158,-4.032455444335938,-50.42449951171875,4.031463623046875,2
1596230823.728093,134,0,103155.92057975,-0.9974206027807244,0.6437197019236157,1.187087947895654,0.01268768403679132,-0.2938313186168671,0.005169671028852463,-0.1358050107955933,0.001761734485626221,-0.02772200107574463,2,0.5913784233941404,-0.02348566901031521,-0.2207521024135034,0.7752343352994613,0.2246822714805603,-0.9272827506065369,-0.2994399666786194,-4.121742248535156,-50.44389343261719,4.05731201171875,2
1596230823.762523,135,0,103155.95067875,-1.000225564401076,0.6470294743131813,1.183844343502191,-0.2270988076925278,0.3341231644153595,-0.1552586257457733,-0.07817476987838745,0.0111309289932251,0.06831395626068115,2,0.5907301161876622,-0.02216824878483242,-0.2216474005170627,0.7755119366487921,0.2274841070175171,-0.926063597202301,-0.3010929822921753,-3.994705200195312,-50.38903045654297,3.8245849609375,2
