loggingTime,loggingSample,identifierForVendor,motionTimestamp_sinceReboot,motionYaw,motionRoll,motionPitch,motionRotationRateX,motionRotationRateY,motionRotationRateZ,motionUserAccelerationX,motionUserAccelerationY,motionUserAccelerationZ,motionAttitudeReferenceFrame,motionQuaternionX,motionQuaternionY,motionQuaternionZ,motionQuaternionW,motionGravityX,motionGravityY,motionGravityZ,motionMagneticFieldX,motionMagneticFieldY,motionMagneticFieldZ,motionMagneticFieldCalibrationAccuracy
1596230824.691424,1,0,103156.88374925,-1.007175290521295,0.6966890100399574,1.201214275229319,0.06551901996135712,-0.07789517939090729,0.139653816819191,0.007577210664749146,-0.01430392265319824,-0.01013642549514771,2,0.6011500038892716,-0.009696515474100498,-0.2052468521595939,0.7722681828265224,0.2317916750907898,-0.9324784278869629,-0.2770493030548096,-4.531631469726562,-50.44789123535156,4.706085205078125,2
1596230824.721333,2,0,103156.91384825,-1.01156422010632,0.6987564954245451,1.204965876252857,0.06735539436340332,-0.02386639267206192,-0.0518328920006752,-0.04057067632675171,0.06494402885437012,0.0121726393699646,2,0.6024359466194927,-0.0112396820257272,-0.2053732208230916,0.7712109114439558,0.2301120907068253,-0.9338269829750061,-0.2738892138004303,-4.580924987792969,-50.62718200683594,4.986785888671875,2
1596230824.751558,3,0,103156.94394725,-1.013533911971306,0.7051364883964346,1.205424010576885,0.03803775459527969,0.2911732792854309,0.05218666791915894,0.02738648653030396,-0.05033814907073975,0.05264627933502197,2,0.6032121178238588,-0.009498506829742626,-0.2040937874059989,0.7709672919875021,0.2315776199102402,-0.9339907765388489,-0.2720898389816284,-4.598243713378906,-50.38750457763672,5.130279541015625,2
1596230824.782663,4,0,103156.97404625,-1.009299232494664,0.70671914543763,1.205979309777663,0.008182946592569351,0.001327899750322104,0.0122211892157793,-0.0490022599697113,0.01304930448532104,-0.1413474082946777,2,0.6035523613886121,-0.00776225191858998,-0.2018428405689774,0.7713129885511112,0.2316711992025375,-0.9341890811920166,-0.2713285982608795,-4.809181213378906,-50.54637908935547,4.807769775390625,2
1596230824.81167,5,0,103157.00414525,-1.022983763773383,0.7205989549128851,1.208693264739602,0.3325081765651703,0.09586364030838013,-0.07289008051156998,0.05052295327186584,0.05011439323425293,-0.1308033466339111,2,0.605686578002591,-0.007296800862345215,-0.2022262642389944,0.7695421396759069,0.2337410748004913,-0.9351539015769958,-0.2661810517311096,-4.635299682617188,-50.41811370849609,4.96307373046875,2
1596230824.845264,6,0,103157.03424425,-1.027808138624871,0.7290937167509299,1.220543834943709,0.3335319459438324,-0.04448309913277626,0.4121812582015991,0.09138491749763489,0.06355094909667969,-0.1138037443161011,2,0.6098949010368869,-0.008775994288440919,-0.1984438702736849,0.7671838359916248,0.2285942137241364,-0.9392861127853394,-0.2559023797512054,-4.767005920410156,-50.53060913085938,5.695343017578125,2
1596230824.871894,7,0,103157.06434325,-1.03697523966032,0.7323658757505073,1.234725345152546,0.470386803150177,-0.2612464725971222,0.01118415407836437,-0.0477345883846283,-0.03010702133178711,-0.05723237991333008,2,0.6141538808177692,-0.01426984319537231,-0.1972677528237668,0.7640004662058356,0.220501184463501,-0.9440576434135437,-0.2452227622270584,-4.949913024902344,-50.29444122314453,6.154571533203125,2
1596230824.906439,8,0,103157.09444225,-1.063075034757827,0.7463731590937763,1.240992403191824,0.1451226323843002,-0.4998177587985992,-0.2395609766244888,-0.07704037427902222,-0.007232904434204102,0.1076132655143738,2,0.6170643360836713,-0.01872617995689352,-0.2012559606092141,0.7605109361991145,0.2198928147554398,-0.9461058378219604,-0.2377618700265884,-5.007423400878906,-50.35236358642578,6.75213623046875,2
1596230824.932102,9,0,103157.12454225,-1.104535106254892,0.7829910136566818,1.235120835928621,0.5252528190612793,0.3172463178634644,-0.0393340028822422,-0.0123516321182251,0.07029086351394653,-0.009072422981262207,2,0.6188721789941758,-0.01595101098184684,-0.2072557213491756,0.7574877081773896,0.2323642075061798,-0.9441879987716675,-0.2334855794906616,-4.658058166503906,-50.30858612060547,6.831573486328125,2
1596230824.965173,10,0,103157.15464125,-1.09636203605608,0.7811046706572244,1.259651698677067,0.2644798457622528,0.1600563228130341,0.6876097917556763,0.09536325931549072,0.05165839195251465,0.05951303243637085,2,0.6251754710569173,-0.02126220116622241,-0.1980553559301644,0.7546373981797493,0.2155482023954391,-0.9519837498664856,-0.2174070924520493,-5.032005310058594,-50.03569030761719,7.829132080078125,2
1596230824.992311,11,0,103157.18474025,-1.106542095656277,0.7943372010061334,1.267696214842027,0.3714784979820251,-0.000557413324713707,-0.2933547794818878,-0.05463722348213196,-0.03916835784912109,-0.0981522798538208,2,0.6284449517094945,-0.02181209135660098,-0.1955345790899519,0.7525605189208759,0.212935596704483,-0.9544157385826111,-0.2091623544692993,-5.266189575195312,-49.81032562255859,7.94537353515625,2
1596230825.025039,12,0,103157.21483925,-1.145720276320306,0.8325549939040348,1.27450253345805,0.4773974418640137,0.1040890738368034,0.2076023072004318,0.0977664589881897,0.05849522352218628,-0.09544223546981812,2,0.633461726190138,-0.02185182322363882,-0.1962699779567954,0.7481489657827831,0.2159622013568878,-0.9564251899719238,-0.1964974850416183,-5.304756164550781,-49.97185516357422,8.5003662109375,2
1596230825.052779,13,0,103157.24493825,-1.165922971468829,0.8575939969792716,1.292523342613516,0.6165676116943359,0.2372862249612808,0.2445490807294846,-0.1056025922298431,0.05956709384918213,-0.002051472663879395,2,0.6399563980557912,-0.02439230703643883,-0.1906680817301928,0.7439800660998792,0.2077437341213226,-0.9615312814712524,-0.1797216534614563,-6.022926330566406,-49.66617584228516,9.4609375,2
1596230825.087049,14,0,103157.27503725,-1.210964540366467,0.9124875733418778,1.302444341568065,0.3357493877410889,0.5230318307876587,-0.1884833723306656,-0.1163341701030731,0.01125645637512207,0.1336374282836914,2,0.646861110854891,-0.02159355491769349,-0.1867890419404324,0.7390630460094397,0.2097351402044296,-0.9642091393470764,-0.1622088402509689,-5.991806030273438,-49.52609252929688,10.20547485351562,2
1596230825.11284,15,0,103157.30513625,-1.249072707483742,0.9643936965177612,1.305988821038317,0.4426495134830475,0.4579849243164062,0.03755636885762215,-0.07984602451324463,-0.04729104042053223,-0.06547296047210693,2,0.6520470369592681,-0.01595401339723213,-0.1829094498129614,0.7356115165212262,0.215059220790863,-0.9651429057121277,-0.1491602659225464,-5.82122802734375,-49.31309509277344,10.74307250976562,2
1596230825.14286,16,0,103157.33523525,-1.294598854813727,1.027165216894235,1.313567797278234,0.4266561269760132,0.6811040043830872,-0.1114900931715965,-0.09294039011001587,0.05160027742385864,0.05462241172790527,2,0.6588623074936102,-0.01031196910649673,-0.1766719029174372,0.7311505572365544,0.2177257090806961,-0.9670987725257874,-0.1315882503986359,-6.049468994140625,-49.51483917236328,10.97940063476562,2
1596230825.172865,17,0,103157.36533425,-1.352708351325315,1.096747408730246,1.313607926194671,0.5114448666572571,0.2630437314510345,-0.3646461367607117,-0.03804638981819153,-0.02910810708999634,-0.2389576435089111,2,0.6647746332207671,-0.00420084662910658,-0.1748069087343136,0.7262914698659841,0.2263123244047165,-0.9671089649200439,-0.11611407995224,-5.804183959960938,-49.14378356933594,11.95150756835938,2
1596230825.203245,18,0,103157.39543325,-1.435935315612307,1.180891492645977,1.311144800568303,0.6193128228187561,-0.03855441138148308,-0.273897796869278,0.07209867238998413,0.02602440118789673,-0.1303267478942871,2,0.6717181118484414,-0.0007607154945004913,-0.1775805397382888,0.7192074411179525,0.2374739050865173,-0.966479480266571,-0.09758839756250381,-5.442840576171875,-49.00579071044922,12.32577514648438,2
1596230825.233702,19,0,103157.42553225,-1.492588467311754,1.233814382247662,1.311967803463043,0.4884417653083801,0.1158962771296501,-0.1336723864078522,-0.1827994287014008,-0.01360219717025757,0.227505087852478,2,0.6765243579155944,-0.001177252666004686,-0.1797676535272303,0.7141407427636,0.2415529489517212,-0.9666904807090759,-0.08462681621313095,-4.994415283203125,-48.98146820068359,13.27853393554688,2
1596230825.263584,20,0,103157.45563125,-1.557210140578462,1.299801003544574,1.306791569237563,0.2690536975860596,0.02212479151785374,-0.5323579907417297,-0.1533171534538269,0.04296427965164185,0.1994820237159729,2,0.6819594356413549,0.002160860122013747,-0.1820954116392426,0.7083556594613651,0.2514246702194214,-0.9653527140617371,-0.06985332071781158,-4.73406982421875,-48.70735168457031,13.99240112304688,2
1596230825.293207,21,0,103157.48573025,-1.597499185509025,1.340509170875866,1.292694367450467,0.3450374603271484,0.1094178706407547,-0.4509736299514771,0.09456837177276611,-0.01927298307418823,-0.02245181798934937,2,0.684549447198058,0.007764525299099073,-0.1872351262245238,0.7044676091845781,0.2672831118106842,-0.9615782499313354,-0.06266353279352188,-3.887779235839844,-48.42789459228516,14.41363525390625,2
1596230825.32392,22,0,103157.51582925,-1.632438723234322,1.379193650243175,1.28641489537741,0.1588147431612015,0.07254242897033691,-0.1406208127737045,0.02414619922637939,0.02330207824707031,0.02365213632583618,2,0.6878599315611691,0.0115985246769085,-0.1883893232101926,0.7008734019846373,0.2754291296005249,-0.959835410118103,-0.05342837795615196,-3.650421142578125,-48.52915191650391,14.68341064453125,2
1596230825.353504,23,0,103157.54592825,-1.662003691488531,1.404426086064857,1.280123944910913,0.2287252396345139,-0.08543071150779724,-0.3876838684082031,0.03327110409736633,-0.006185829639434814,0.04390931129455566,2,0.6900098940835606,0.01247589107268018,-0.1921927843433859,0.697705171014411,0.2826388478279114,-0.9580513834953308,-0.04746139794588089,-3.310111999511719,-48.366943359375,15.20050048828125,2
1596230825.383822,24,0,103157.57602725,-1.680110699755333,1.422443223718225,1.270790683539527,0.1254933923482895,0.09762166440486908,-0.2293847799301147,0.1111904680728912,0.03946131467819214,0.08492285013198853,2,0.6913095528782177,0.01582320788758718,-0.1954777035205066,0.6954344736678117,0.2922792136669159,-0.9553348422050476,-0.04368145763874054,-2.999649047851562,-48.2978515625,15.28118896484375,2
1596230825.413622,25,0,103157.60612625,-1.692153958353706,1.434550905836411,1.266248033700597,-0.01777123287320137,-0.08392265439033508,-0.1172114759683609,0.1861850321292877,-0.04070615768432617,0.1339619755744934,2,0.6923367083648926,0.01748154938859112,-0.1970292554009611,0.6939334874651758,0.2970832288265228,-0.9539824724197388,-0.04072855412960052,-2.377243041992188,-48.293701171875,15.58987426757812,2
1596230825.443721,26,0,103157.63622625,-1.681379456615506,1.417864401701268,1.266019623670017,-0.1034747734665871,-0.3433322310447693,0.1218435913324356,-0.05239254236221313,0.01511728763580322,0.04299157857894897,2,0.6905819129336743,0.01549342698518832,-0.1991349412426854,0.6951272040856311,0.2965777814388275,-0.9539139866828918,-0.0457131490111351,-2.349288940429688,-48.41629028320312,15.485595703125,2
1596230825.474012,27,0,103157.66632525,-1.668989980747712,1.404417289810214,1.266148235107679,-0.2043707370758057,0.3515798449516296,-0.1266124248504639,-0.1613300442695618,0.01776564121246338,0.08022791147232056,2,0.689155557259755,0.01504283655069569,-0.1994189321088967,0.6964699129662987,0.295815110206604,-0.9539525508880615,-0.04967666044831276,-2.363029479980469,-48.13968658447266,15.2174072265625,2
1596230825.504211,28,0,103157.69642425,-1.640588006957238,1.400289320747117,1.257686961335988,-0.4687500596046448,1.163326382637024,-0.2654156982898712,-0.1264020800590515,-0.01407742500305176,0.3299524188041687,2,0.6878742271182507,0.02639160087770348,-0.1938268754845863,0.6989731510075741,0.3035510778427124,-0.9513804316520691,-0.05226506292819977,-2.250396728515625,-48.50839996337891,14.53607177734375,2
1596230825.535415,29,0,103157.72652325,-1.598600353819656,1.388794606127586,1.247198529416587,-0.4674930274486542,0.5763413906097412,-0.3793428540229797,-0.1647723615169525,0.01984119415283203,0.05375874042510986,2,0.6852613017911481,0.04049752074657884,-0.1866465382279487,0.7028085285520359,0.312727302312851,-0.9480975270271301,-0.05755379796028137,-2.371910095214844,-48.58980560302734,14.1824951171875,2
1596230825.566628,30,0,103157.75662225,-1.554337830026196,1.368130055369812,1.230214110522492,-0.6445015668869019,0.6132307648658752,-0.3628266453742981,0.1502234041690826,-0.06708610057830811,-0.1159769892692566,2,0.680757739503558,0.0543257308042549,-0.1839025941403009,0.7069634129249921,0.3271988332271576,-0.9425603151321411,-0.06723523139953613,-1.775642395019531,-48.87361145019531,13.12112426757812,2
1596230825.594275,31,0,103157.7867210417,-1.51012958020578,1.339979842168579,1.220210022464864,-0.6356639266014099,0.4319027960300446,-0.1864684075117111,-0.01602762937545776,0.01759803295135498,0.03015857934951782,2,0.675843652463847,0.06284599119949652,-0.1811734117379231,0.7116613070982662,0.3343399167060852,-0.9391714930534363,-0.07857147604227066,-1.716545104980469,-48.86875152587891,12.63467407226562,2
1596230825.625636,32,0,103157.8168200417,-1.443138890847599,1.295606138793733,1.204504721878651,-0.8293482065200806,0.6610256433486938,-0.4923362135887146,-0.4362837672233582,-0.2304494380950928,0.1687036752700806,2,0.6676255925215649,0.07493534375533878,-0.1774190437538666,0.7191544703181818,0.3446791768074036,-0.933661937713623,-0.0973215252161026,-1.409103393554688,-49.28119659423828,11.37335205078125,2
1596230825.654541,33,0,103157.8469190417,-1.400548319768068,1.282190559292791,1.17210200507452,-0.919026255607605,0.8285292387008667,-1.363178491592407,-0.6042781472206116,-0.4284386038780212,-0.1075414419174194,2,0.6600449288347676,0.09536556270230843,-0.1773518448625442,0.72373496033761,0.3721591532230377,-0.9215686917304993,-0.1104921996593475,-1.07177734375,-49.77787780761719,10.53964233398438,2
1596230825.684698,34,0,103157.8770180417,-1.374244491272531,1.273642838500966,1.11113205514184,-1.449643731117249,0.462192714214325,-2.271698713302612,-0.8619177937507629,-0.803565502166748,0.431923508644104,2,0.648279721227223,0.1215875073619345,-0.1908238637783266,0.727004916248001,0.4242039024829865,-0.896201491355896,-0.1298997551202774,1.689865112304688,-49.60622406005859,9.02752685546875,2
1596230825.717751,35,0,103157.9071170417,-1.256366614679373,1.236459971350277,1.001323762556998,-3.711830854415894,4.015300750732422,-3.215484619140625,-1.592441916465759,-1.538499355316162,0.6395274996757507,2,0.6152941095624287,0.1815157764168327,-0.1950249117814661,0.7419099757845292,0.5093320608139038,-0.8421854972839355,-0.1769303679466248,4.095611572265625,-49.86959075927734,7.000640869140625,2
1596230825.744707,36,0,103157.9372160417,-1.09858565964812,1.269776773833128,0.8617623976932522,-5.070732116699219,6.749137878417969,-3.951770544052124,-1.013532161712646,-0.3789093494415283,0.7166261672973633,2,0.5681538545675914,0.284037785619644,-0.1706535600164361,0.7532601876688955,0.6218236684799194,-0.7589912414550781,-0.1930474638938904,9.702857971191406,-49.00547027587891,1.01025390625,2
1596230825.774942,37,0,103157.9673150417,-0.921062770058118,1.370699357749103,0.6971695868276246,-5.882693290710449,7.822249412536621,-4.192301273345947,-0.1769739389419556,-0.07932066917419434,0.8543297052383423,2,0.5012684036600188,0.4153762141852007,-0.1297090960193757,0.7479091353678747,0.7513654828071594,-0.6420502662658691,-0.1523851752281189,13.60678100585938,-47.64243316650391,-1.719940185546875,2
1596230825.804912,38,0,103157.9974140417,-0.7160944130443609,1.488774836998706,0.5595127688889125,-6.058502674102783,7.786396503448486,-3.266088485717773,0.1179102659225464,0.2958799600601196,0.6567764282226562,2,0.4184128383396657,0.5387137394276209,-0.07251896814823125,0.7276393062832822,0.8446643352508545,-0.5307733416557312,-0.06943640857934952,22.16498565673828,-43.34432983398438,-6.149810791015625,2
1596230825.835032,39,0,103158.0275130417,-0.5345034095348024,1.604012969782693,0.4712521835305882,-4.535706043243408,5.394870758056641,-2.403475522994995,0.1777587532997131,0.4751645922660828,0.3351969718933105,2,0.3411137944736861,0.6312184077617067,-0.01669617000816001,0.6963661460674575,0.8905088305473328,-0.4540023505687714,0.02959059737622738,25.71707916259766,-40.70124816894531,-6.86688232421875,2
1596230825.866284,40,0,103158.0576120417,-0.3834069597350118,1.625706667202877,0.4133021569356613,-4.703771114349365,0.3785901367664337,-1.865120768547058,0.4526077508926392,0.2018023133277893,0.2577083110809326,2,0.27389483204605,0.67090417693819,0.01809488677163715,0.6888697991322108,0.9144190549850464,-0.401635617017746,0.05026158690452576,30.97224426269531,-36.43534851074219,-8.266265869140625,2
1596230825.895236,41,0,103158.0877110417,-0.2237807736857072,1.531427662216392,0.3885199637597446,-4.767813682556152,-2.126556873321533,0.2123494893312454,0.1995471119880676,-0.004982560873031616,0.1692709922790527,2,0.2142189495060142,0.6602254753024986,0.05397226431294314,0.7178435271100124,0.9247534275054932,-0.3788191080093384,-0.03642512857913971,31.89805603027344,-34.25799560546875,-11.06912231445312,2
1596230825.925362,42,0,103158.1178100417,-0.08164606675911665,1.398947873652229,0.4084554191217759,-3.919380187988281,-2.632524490356445,1.922256588935852,-0.1849690675735474,0.4636400938034058,0.5873978137969971,2,0.1807869570485782,0.6235767296755876,0.0998846972349797,0.7539834303660349,0.9042173624038696,-0.3971922993659973,-0.1569362729787827,30.27395629882812,-31.52562713623047,-19.49139404296875,2
1596230825.955438,43,0,103158.1479090417,0.05786152469087225,1.283909009232884,0.4589890772222798,-3.419955492019653,-1.166839480400085,3.160885334014893,-0.3959379196166992,0.7749972939491272,0.4877334237098694,2,0.1652567976563587,0.5880898096032674,0.1587133695101474,0.7756613147316066,0.8598601222038269,-0.4430420398712158,-0.2536811232566833,27.83937072753906,-30.93070220947266,-23.37863159179688,2
1596230825.985712,44,0,103158.1780080417,0.1858913604314129,1.223355156222441,0.5322000403959,-2.121392250061035,1.675584316253662,3.724152565002441,-0.4473757147789001,0.7194817662239075,0.4490190744400024,2,0.1629405104054524,0.571620683790327,0.2236663982620743,0.7724464805900485,0.8102041482925415,-0.5074303150177002,-0.293400377035141,23.16974639892578,-30.78085327148438,-28.54937744140625,2
1596230826.017123,45,0,103158.2081080417,0.2791343786840128,1.263046634892011,0.6227740690200299,-0.9631769061088562,3.587972402572632,3.57772159576416,-0.4840039014816284,0.2681865096092224,0.3802014589309692,2,0.166702989219863,0.590920303640714,0.2860034907794389,0.7356800826130022,0.7741013169288635,-0.583290696144104,-0.2460466176271439,21.51651000976562,-32.11146545410156,-28.21221923828125,2
1596230826.045735,46,0,103158.2382070417,0.3442422711056997,1.30972126424559,0.7116821717663443,-0.776132345199585,2.216842889785767,3.09960412979126,0.08901625871658325,-0.2533364295959473,0.4272822141647339,2,0.1744493869775781,0.6097828640397437,0.3363763828943857,0.696120058096978,0.7316028475761414,-0.653108537197113,-0.1954645365476608,21.14349365234375,-33.12400054931641,-27.42886352539062,2
1596230826.075837,47,0,103158.2683060417,0.4266122899046146,1.3091261340601,0.8053629801569314,-1.486401319503784,1.756676316261292,4.29871654510498,0.3118032217025757,-0.07401597499847412,0.3631775975227356,2,0.1852711573478982,0.6132344789223687,0.3876840965671398,0.66281140237387,0.6692642569541931,-0.7210822105407715,-0.1792361438274384,18.70487976074219,-34.95890808105469,-26.79736328125,2
1596230826.106198,48,0,103158.2984050417,0.5383082443751956,1.256148879901231,0.9443532449372477,0.335813581943512,-1.782976150512695,5.23662805557251,-0.3407193422317505,0.3380817174911499,-0.3423229455947876,2,0.2156243032473117,0.6023179218510748,0.4492532497140879,0.6236109765321719,0.5574842691421509,-0.8101179599761963,-0.1814385652542114,16.4974365234375,-36.25772094726562,-27.15762329101562,2
1596230826.136099,49,0,103158.3285040417,0.4500259004253422,1.494717175635179,0.9651048356092514,-3.323973894119263,10.41170978546143,-4.706098556518555,3.706954956054688,-0.2704899907112122,2.610217094421387,2,0.1974502572043148,0.662855335820037,0.4524274422462837,0.5629790557797828,0.5676835179328918,-0.8221086263656616,-0.04327239841222763,16.66017913818359,-39.12015533447266,-23.14208984375,2
1596230826.166305,50,0,103158.3586030417,0.564313345712036,1.406674141168877,0.8711136724781925,2.838053941726685,-5.165822982788086,-0.8115314245223999,0.8306331634521484,1.21734881401062,-2.563315391540527,2,0.1458005344498257,0.6527892847403258,0.4546173957160495,0.5881592271161225,0.6353211402893066,-0.7650465965270996,-0.1052167043089867,20.7867431640625,-35.61177062988281,-24.24374389648438,2
1596230826.196542,51,0,103158.3887020417,0.3968929315806773,1.398626679140041,0.912144659854397,1.448387384414673,-3.461511373519897,2.600327491760254,-0.4736241698265076,-0.3797100186347961,-0.003682315349578857,2,0.2165046333925284,0.6330066056545974,0.4133868223061979,0.6176889063579587,0.6030020117759705,-0.7908182144165039,-0.1048567593097687,17.7354736328125,-37.71508026123047,-24.36190795898438,2
1596230826.226641,52,0,103158.4188010417,0.4130885543241515,1.343056070487958,1.012656908274519,-0.5379260182380676,1.163298964500427,3.040129661560059,-0.8193804621696472,-1.662637710571289,0.9258023500442505,2,0.2600122273196755,0.6104154120193832,0.4357328975449672,0.6082133329595972,0.5159338116645813,-0.8482419848442078,-0.1195733323693275,13.98185729980469,-39.34991455078125,-24.46923828125,2
1596230826.25658,53,0,103158.4489000417,0.4599058065487878,1.347949003476943,1.04868596897783,-0.0978756844997406,2.312407493591309,-0.2909761369228363,-0.71957927942276,0.3130378723144531,0.1929758787155151,2,0.2577399165649707,0.6151916906965973,0.4583933197719789,0.5873539775204014,0.4863780736923218,-0.8667686581611633,-0.1102186366915703,11.13890075683594,-40.32728576660156,-24.7386474609375,2
1596230826.286804,54,0,103158.4789990417,0.4531976275747496,1.428182106882016,1.013176742584955,-0.1180906817317009,2.209092855453491,-1.449744462966919,0.2306941151618958,0.556941032409668,0.1271374821662903,2,0.2286249500147379,0.6404100279108244,0.4581005309790551,0.5724939594772674,0.5237953066825867,-0.8485171794891357,-0.07521125674247742,12.50283813476562,-40.05252838134766,-23.97186279296875,2
1596230826.317136,55,0,103158.5090980417,0.4490970135744521,1.484629679825502,0.9987388396790308,0.1030693426728249,1.33944308757782,0.8132994771003723,0.5782941579818726,-0.05178451538085938,-0.008185327053070068,2,0.2118838614168731,0.657122798843131,0.4596353696140951,0.558596453098215,0.5393543243408203,-0.8407889008522034,-0.04658971354365349,16.44007873535156,-39.31935882568359,-22.92645263671875,2
1596230826.346703,56,0,103158.5391970417,0.4475359200150495,1.512071423303113,1.049055923644143,0.2352569252252579,0.6770967841148376,1.939042687416077,-0.2651411294937134,-0.01628857851028442,0.1702215671539307,2,0.2235118843596055,0.6598612774417035,0.4747517892125116,0.5378068610029523,0.4975305199623108,-0.8669530749320984,-0.02925106324255466,16.14791870117188,-39.62991333007812,-22.46014404296875,2
1596230826.376804,57,0,103158.5692960417,0.4375613819126864,1.547248342454497,1.08392400860106,0.08817971497774124,1.125635743141174,0.02401367016136646,-0.8148759603500366,0.02331256866455078,0.05337774753570557,2,0.230290708180202,0.6644231138104022,0.4848438244177223,0.5200331863323167,0.4677340686321259,-0.8838005065917969,-0.01101623103022575,14.38178253173828,-40.89727020263672,-21.81594848632812,2
1596230826.406878,58,0,103158.5993950417,0.4348337855433374,1.587529020802815,1.056965439984521,0.06814416497945786,1.337297677993774,-1.248634576797485,-0.07089534401893616,-0.4757287502288818,-0.2527179718017578,2,0.2124043386289789,0.6774927338647605,0.4816598666611968,0.5137038115140292,0.4914478957653046,-0.8708679676055908,0.00822401512414217,14.73280334472656,-40.83113098144531,-21.012939453125,2
1596230826.437079,59,0,103158.6294940417,0.4466405106625396,1.605695896740132,1.034610368499737,-0.3339102864265442,0.232412725687027,-0.1732334643602371,0.4908257722854614,-0.03832626342773438,-0.142608642578125,2,0.1965407870507528,0.6857727877183429,0.4806227582579782,0.5099891978892754,0.5105494856834412,-0.8596633672714233,0.01782519556581974,17.33538818359375,-40.02692413330078,-20.16201782226562,2
1596230826.467107,60,0,103158.6595930417,0.4386199458545171,1.592259956178428,1.042298644968717,0.5195927619934082,-1.202616453170776,0.5014191865921021,0.1857588887214661,0.143974244594574,0.1553233861923218,2,0.2050750555593283,0.6807019744628002,0.4792617625891594,0.5146815924566515,0.5041202902793884,-0.8635655641555786,0.01082191243767738,16.7755126953125,-40.34055328369141,-20.61441040039062,2
1596230826.497214,61,0,103158.6896920417,0.4277887173467773,1.566232360395871,1.052396531804896,-0.2314592599868774,-0.8513544797897339,0.07502572238445282,-0.1772070527076721,-0.06915497779846191,0.1497111320495605,2,0.2183474501530153,0.6717095308809965,0.476344987746728,0.5236659316545208,0.4954853653907776,-0.8686131834983826,-0.002261394169181585,16.01576995849609,-40.42315673828125,-20.59152221679688,2
1596230826.527236,62,0,103158.7197910417,0.4363817609609432,1.538680427390707,1.050520761366903,-0.04978229105472565,-0.5993619561195374,-0.1115753278136253,-0.1581565141677856,-0.04652410745620728,0.07337582111358643,2,0.2213920274821287,0.6655856274914751,0.4750992064010193,0.5312833971286214,0.4968628287315369,-0.8676822185516357,-0.01596268452703953,15.33726501464844,-40.52123260498047,-21.49288940429688,2
1596230826.557516,63,0,103158.7498900417,0.449550488815695,1.510551816039209,1.043968883389726,-0.326149970293045,-0.6372556686401367,-0.2428040653467178,0.2627815008163452,-0.03780531883239746,0.07332479953765869,2,0.2214501932978985,0.6601694534605389,0.4738578796159617,0.539068312548031,0.5018810033798218,-0.8644065856933594,-0.03027221001684666,15.46140289306641,-40.30953216552734,-21.85418701171875,2
1596230826.587503,64,0,103158.7799890417,0.4695218618524524,1.457197238975947,1.04334108263728,-0.3807328343391418,-1.528732419013977,0.2802004218101501,0.2018969655036926,-0.06069332361221313,0.01951330900192261,2,0.2273316127097382,0.6479139824774864,0.4731665960808895,0.551943093396819,0.5000918507575989,-0.8640907406806946,-0.05705561861395836,14.55519866943359,-40.01024627685547,-22.9007568359375,2
1596230826.617641,65,0,103158.810089875,0.497258672451533,1.391148580476653,1.05080609432529,-0.3170712888240814,-1.436742663383484,0.2557246088981628,0.04525330662727356,-0.06049454212188721,-0.07426977157592773,2,0.2367793798611536,0.6320951534645385,0.4749599295315391,0.5646274899262869,0.488875150680542,-0.8678240180015564,-0.08878248184919357,13.70970153808594,-39.56355285644531,-23.66336059570312,2
1596230826.650663,66,0,103158.840188875,0.4947263341145283,1.346781399074013,1.052309513704736,0.2445873469114304,-1.4632488489151,-0.1972162872552872,-0.1122004985809326,-0.1943970918655396,0.3495807647705078,2,0.2485910731871354,0.6189979252429693,0.4691788775428128,0.5787185982804591,0.4831838607788086,-0.8685700297355652,-0.1100880950689316,12.16182708740234,-39.73130035400391,-24.94601440429688,2
1596230826.677827,67,0,103158.870287875,0.4949041252044385,1.3076994299848,1.044373047535717,-0.3856000304222107,-1.278179049491882,-0.2304708212614059,-0.1595470309257507,-0.1015337705612183,0.4000340104103088,2,0.2547174774068025,0.608098023436642,0.4626447189481034,0.5927018124527232,0.4851542115211487,-0.8646097183227539,-0.1306716054677963,11.80950164794922,-39.75890350341797,-25.10980224609375,2
1596230826.707909,68,0,103158.900386875,0.5138192433294821,1.257302716942306,1.037436245754661,-0.278609573841095,-0.9653880596160889,0.005774775985628366,-0.2245346903800964,-0.1646432280540466,0.3014365434646606,2,0.2580616833153382,0.5958258767442038,0.4604511685822357,0.6052935167709689,0.4836494624614716,-0.8611035943031311,-0.1567913889884949,10.74832916259766,-39.58956909179688,-26.10610961914062,2
1596230826.738057,69,0,103158.930485875,0.5123365031668877,1.21783212461293,1.039743445334432,0.556546151638031,-1.719705581665039,-0.08621083945035934,-0.2784591317176819,0.03145939111709595,0.3410205245018005,2,0.2684083877417991,0.5834581497803366,0.4552465189341496,0.6166717538463231,0.4752203524112701,-0.8622743487358093,-0.1750670522451401,10.14864349365234,-39.17913055419922,-26.54849243164062,2
1596230826.768067,70,0,103158.960584875,0.4301189949712972,1.215483384203576,1.039116730984774,2.060909271240234,-3.431870222091675,-0.8069389462471008,0.2380776107311249,0.2571966648101807,0.2590287923812866,2,0.2924272069418206,0.5712276341080406,0.4290506389466617,0.6356891400717931,0.4753142595291138,-0.861956775188446,-0.1763706356287003,8.353126525878906,-40.2135009765625,-26.30242919921875,2
1596230826.800571,71,0,103158.990683875,0.2411776047347262,1.217188136750045,1.046578193721221,4.059693336486816,-7.480691909790039,-0.9370247721672058,1.151282429695129,0.4323326349258423,0.2589659094810486,2,0.3474568863836279,0.5409340337947355,0.3691192523650256,0.6711296350306595,0.4695676565170288,-0.8657155632972717,-0.173328161239624,7.0709228515625,-41.14256286621094,-25.28936767578125,2
1596230826.828262,72,0,103159.020782875,-0.02811511800302955,1.175872208905693,1.059235881196559,3.869886875152588,-9.989054679870605,-1.290423512458801,1.280137896537781,0.1953683495521545,0.6987028121948242,2,0.4270605306147839,0.4727021028311973,0.2700867509307907,0.7219591567562745,0.4518564343452454,-0.871981680393219,-0.1883440464735031,1.556129455566406,-44.33106231689453,-20.793701171875,2
1596230826.858501,73,0,103159.050881875,-0.2912856731493821,1.121140435236464,1.068781125797189,4.137146949768066,-8.394043922424316,-2.105331420898438,0.1213060021400452,0.1358717679977417,0.3582403659820557,2,0.4932025298959201,0.3900957707736191,0.1621415697886724,0.7604514525203065,0.4333605170249939,-0.8766146302223206,-0.2091531008481979,-1.164474487304688,-45.70455169677734,-17.8763427734375,2
1596230826.888608,74,0,103159.080980875,-0.5373828146430994,1.141940438490718,1.028422125753915,1.798760175704956,-4.494958877563477,-3.549961566925049,-0.4308051764965057,0.03549480438232422,0.5258352756500244,2,0.523900339518902,0.3438149074191387,0.06180529956855926,0.7768523656379156,0.469427227973938,-0.8564856052398682,-0.2146394848823547,-1.908332824707031,-48.26248168945312,-11.40997314453125,2
1596230826.918678,75,0,103159.111079875,-0.6804939189496332,1.169707787906713,0.9455817321521301,1.158660411834717,-1.750000834465027,-3.359965562820435,-0.2636810541152954,-0.1177145838737488,-0.2682322859764099,2,0.5219484036274961,0.336628717202732,-0.01074018813003907,0.7836679333753049,0.5388219356536865,-0.8108375668525696,-0.228501945734024,2.9017333984375,-49.17274475097656,-8.731719970703125,2
1596230826.94981,76,0,103159.141178875,-0.7945318604749269,1.233474958710115,0.8774039190554777,1.503805994987488,-0.3826924264431,-2.559728384017944,-0.1036230325698853,0.2736872434616089,-0.1247132420539856,2,0.5221075166280278,0.3487650272848771,-0.05919064132736296,0.7760560928840053,0.6031302213668823,-0.7690821886062622,-0.211533397436142,5.687469482421875,-48.59938049316406,-7.782958984375,2
1596230826.978618,77,0,103159.171277875,-0.8938074903787098,1.293830011916941,0.8284953862799157,1.643929481506348,-0.6970722675323486,-1.820406794548035,-0.01200461387634277,0.2805219292640686,-0.06398910284042358,2,0.5280842385146853,0.3587572059018045,-0.09691221859575241,0.7635628594675659,0.6502229571342468,-0.736915111541748,-0.1848406046628952,10.03489685058594,-48.01012420654297,-5.011322021484375,2
1596230827.008946,78,0,103159.201376875,-0.9810906342699527,1.323563132253627,0.8037743153295085,1.774582266807556,-1.653764367103577,-0.713990330696106,0.1399110555648804,-0.1371579170227051,0.01189452409744263,2,0.5386327957609925,0.3534923443457036,-0.1300152389723162,0.7536668353493867,0.6728918552398682,-0.7199805378913879,-0.1698357462882996,11.51341247558594,-47.90830993652344,-3.62579345703125,2
1596230827.03899,79,0,103159.231475875,-1.058658622182885,1.311887870134981,0.8149616419714382,1.884381532669067,-2.821906328201294,0.5048404335975647,0.2076728940010071,-0.1634823679924011,0.1406395435333252,2,0.5538345407143922,0.3247519414002051,-0.1587714862833746,0.7500633539866716,0.6630353331565857,-0.7276992797851562,-0.1756069511175156,12.26617431640625,-47.7506103515625,-1.41668701171875,2
1596230827.069165,80,0,103159.261574875,-1.133828760373186,1.268340060213085,0.8586815631585685,2.178453207015991,-3.655392646789551,1.293829917907715,0.01283824443817139,0.0417855978012085,0.2257566452026367,2,0.572191207532012,0.2743703197535202,-0.1852893497741792,0.7503239230751856,0.6237751245498657,-0.7569817304611206,-0.1946363002061844,11.42162322998047,-48.23118591308594,-0.351776123046875,2
1596230827.09923,81,0,103159.291673875,-1.211129292691931,1.2163478465836,0.9246794610564569,2.223783493041992,-3.662845373153687,1.747540950775146,-0.2663030624389648,-0.1097714304924011,0.4285189509391785,2,0.5920637213953913,0.212075103251939,-0.2085759238200445,0.748986384286651,0.5646632313728333,-0.7984278202056885,-0.2089693993330002,8.956832885742188,-49.05384826660156,1.90911865234375,2
1596230827.129299,82,0,103159.321772875,-1.276612308845705,1.169228628058055,0.9963514343034778,1.797963500022888,-2.930591583251953,1.679703831672668,-0.4644920825958252,-0.2951760292053223,0.5484640002250671,2,0.6088744993251335,0.1519236922477699,-0.2247098540074168,0.7454504682831974,0.5001433491706848,-0.8394940495491028,-0.2123820781707764,7.647453308105469,-49.41501617431641,2.887176513671875,2
1596230827.159422,83,0,103159.351871875,-1.320227421836337,1.132140111615108,1.058757749339341,1.298879623413086,-2.048984050750732,1.550151109695435,-0.4647557437419891,-0.2711769938468933,0.4601951241493225,2,0.6205436449905154,0.1042973320032684,-0.2327706145836576,0.741528999047802,0.4435676336288452,-0.8717474937438965,-0.2080952972173691,4.902854919433594,-49.52223205566406,5.298583984375,2
1596230827.189591,84,0,103159.381970875,-1.336111891818676,1.093001330066832,1.115451168561921,0.8862915635108948,-1.411182761192322,1.591392278671265,-0.357575535774231,-0.1642525196075439,0.2588470578193665,2,0.6281151371069407,0.06605241385716426,-0.2331093308458811,0.739437806663557,0.390522301197052,-0.8981093168258667,-0.2022169083356857,3.709465026855469,-49.91472625732422,6.199737548828125,2
1596230827.219604,85,0,103159.412069875,-1.33396291549193,1.056275070093017,1.171095523406979,0.7557582259178162,-1.355205535888672,1.630741834640503,-0.5546590089797974,-0.1381053924560547,0.147904634475708,2,0.6348588382962054,0.03467224562954788,-0.2265012906719237,0.7378680311904625,0.3387597799301147,-0.9211774468421936,-0.191504180431366,0.627899169921875,-50.02853393554688,7.899322509765625,2
1596230827.249601,86,0,103159.442168875,-1.337741143182576,1.021403313829875,1.20947206274594,0.7453807592391968,-1.241145610809326,0.4148206114768982,-0.3860639929771423,-0.1233061552047729,0.2064507603645325,2,0.638467610914397,0.007889793974855841,-0.2270176236954811,0.7353636485151964,0.3014905452728271,-0.9354295134544373,-0.1845937222242355,-0.4428482055664062,-50.03553771972656,8.368927001953125,2
1596230827.279819,87,0,103159.472268875,-1.353492835386233,0.9980202879881016,1.22421451252566,-0.1635660231113434,-0.8879291415214539,0.5077440142631531,-0.435558944940567,-0.2313925623893738,0.08908146619796753,2,0.6386222518058742,-0.01061300235738483,-0.235677873527388,0.7324649343569453,0.2854709625244141,-0.9405393004417419,-0.1840979605913162,-1.247650146484375,-49.71434783935547,9.59478759765625,2
1596230827.309862,88,0,103159.502367875,-1.315544207233816,0.9598208773440514,1.238270172678817,0.4147023558616638,0.3861625790596008,0.5258936882019043,-0.4357548356056213,-0.012276291847229,-0.1473339796066284,2,0.6372394407291937,-0.01716098621506074,-0.2295989603985323,0.7354695849852972,0.2673762738704681,-0.9452207684516907,-0.1872627884149551,-1.634307861328125,-49.71509552001953,9.414215087890625,2
1596230827.339995,89,0,103159.532466875,-1.335423760312632,1.005448967234525,1.246427352796597,-0.149798259139061,1.400538086891174,-0.3162083029747009,-0.2381051182746887,-0.08248484134674072,0.02733337879180908,2,0.6438497770096793,-0.009460928952158276,-0.2197613109930536,0.7328524224680318,0.2691196203231812,-0.9478520154953003,-0.1707359105348587,-2.483222961425781,-49.71887969970703,9.96563720703125,2
1596230827.370048,90,0,103159.562565875,-1.345136854397331,1.05562205978381,1.231408034689666,0.1220454648137093,0.8554466962814331,-0.5071597695350647,0.1877016425132751,0.1053797006607056,-0.002088069915771484,2,0.6464314732350712,0.01078070561529504,-0.2118541719832591,0.7328900277710668,0.2897005379199982,-0.9429584741592407,-0.1640202552080154,-2.308792114257812,-49.67729949951172,9.90289306640625,2
1596230827.400208,91,0,103159.592664875,-1.383029160871581,1.095716617150839,1.232008553988617,0.4838165640830994,-0.3501661121845245,0.2468580454587936,0.3057301640510559,-0.1460810899734497,0.2155718207359314,2,0.6510176734844102,0.01293786667461821,-0.212502645604399,0.7285953479426761,0.2955389022827148,-0.9431582093238831,-0.152017205953598,-2.050048828125,-49.5799560546875,10.14813232421875,2
1596230827.43024,92,0,103159.622763875,-1.38512557692599,1.081871650300209,1.246726405983022,-0.01362996734678745,-0.6621525883674622,0.3951080739498138,0.03168210387229919,-0.1812956929206848,0.03839576244354248,2,0.6520859914968721,0.002240213373242178,-0.2130543331773501,0.7275895247355301,0.2811194062232971,-0.9479473233222961,-0.1495576798915863,-2.313201904296875,-49.40126800537109,10.78536987304688,2
1596230827.460439,93,0,103159.652862875,-1.384239888478365,1.061938858668409,1.254280669140126,0.3023906350135803,-0.5303171277046204,0.05107559263706207,-0.3833606243133545,0.04375660419464111,-0.00380706787109375,2,0.6512512451548685,-0.007270678887531495,-0.2168097824604668,0.7271947729277585,0.2718208730220795,-0.9503257274627686,-0.1516379117965698,-2.63189697265625,-49.50450897216797,10.77789306640625,2
1596230827.490665,94,0,103159.682961875,-1.409357554435918,1.085735568793979,1.253227745369947,0.06348732858896255,0.5992063283920288,-0.3602045178413391,-0.08917707204818726,0.1304442882537842,0.122115433216095,2,0.6535758163297727,-0.006470620036835489,-0.2185012927201388,0.7246058935434787,0.2762370109558105,-0.9499974250793457,-0.1455935686826706,-2.416343688964844,-49.27359771728516,11.155029296875,2
1596230827.520673,95,0,103159.713060875,-1.429562912864624,1.123200611454396,1.245870507381725,0.1589362472295761,0.03546050190925598,-0.1238230317831039,0.1218585968017578,-0.06165385246276855,-0.1392133831977844,2,0.6564358369503694,0.002981080876893694,-0.2159242737283474,0.7228138169419033,0.2877903878688812,-0.9476743936538696,-0.1381662040948868,-2.246604919433594,-49.35281372070312,11.39382934570312,2
1596230827.550708,96,0,103159.743159875,-1.445425914950266,1.128089617141117,1.249312202389586,0.1283250004053116,-0.2768200933933258,0.05608025938272476,0.3307707905769348,0.02250844240188599,0.08642590045928955,2,0.6575086239017426,-0.001646687892703114,-0.2189230860989498,0.7209384687024368,0.285513311624527,-0.9487675428390503,-0.1353593915700912,-1.99212646484375,-49.18096923828125,11.71237182617188,2
1596230827.580883,97,0,103159.773258875,-1.442788116511124,1.119859934965477,1.252723946536497,0.06505668163299561,-0.5297235250473022,0.2963236570358276,-0.02367055416107178,0.03905260562896729,0.1096655130386353,2,0.6571372405470962,-0.004919469455491904,-0.2195652536350821,0.7210668268988882,0.2814744710922241,-0.9498400092124939,-0.136292889714241,-2.073989868164062,-49.45340728759766,11.64566040039062,2
1596230827.610918,98,0,103159.8033575,-1.442116072884659,1.090487338455923,1.264912629856364,0.1131863072514534,-0.7064769864082336,0.1957530826330185,-0.1729706227779388,-0.05102711915969849,0.06863784790039062,2,0.6557825082659318,-0.01946689930589024,-0.2250058379803226,0.7203767012019312,0.267062783241272,-0.9535812139511108,-0.1391406804323196,-2.187202453613281,-49.29628753662109,11.88272094726562,2
1596230827.641094,99,0,103159.8334565,-1.435649452879237,1.090367707070439,1.260490711544823,-0.1654482781887054,0.5492581725120544,-0.2407393306493759,0.009216994047164917,0.07049286365509033,0.09086203575134277,2,0.6551243597019992,-0.01587609558276071,-0.2241457658393275,0.7213311195338861,0.270782858133316,-0.9522402882575989,-0.141120046377182,-2.352378845214844,-49.27671813964844,12.00927734375,2
1596230827.67108,100,0,103159.8635555,-1.431521287620682,1.090667054872475,1.256859112844176,-0.1068255975842476,-0.3410638868808746,0.07220746576786041,-0.0347200334072113,-0.07747334241867065,-0.05147653818130493,2,0.6546058024561963,-0.01317390527727647,-0.2237325348888294,0.721984318284199,0.2738905251026154,-0.9511250853538513,-0.142635390162468,-2.21453857421875,-49.29608917236328,11.447509765625,2
1596230827.70122,101,0,103159.8936545,-1.419013938422178,1.063660083311501,1.258610187136949,-0.05932086333632469,-0.3291874527931213,0.04496527835726738,0.02746358513832092,0.010903000831604,0.04009401798248291,2,0.6519484512956704,-0.01944247920419262,-0.2274717689146276,0.7230779993327607,0.2684828639030457,-0.9516643881797791,-0.1491704136133194,-2.188186645507812,-49.39061737060547,11.66336059570312,2
1596230827.731182,102,0,103159.9237535,-1.408663533992014,1.056042602722294,1.254574929504259,-0.2409712821245193,0.1406083106994629,-0.06877671927213669,-0.01913532614707947,0.006190478801727295,0.09936034679412842,2,0.6504959361979858,-0.01745837995147914,-0.2274984324826637,0.7244270872532514,0.2706789672374725,-0.9504172801971436,-0.1531004905700684,-2.249221801757812,-49.48104095458984,11.07388305664062,2
1596230827.761445,103,0,103159.9538525,-1.388424108053905,1.035171535444036,1.252673164103412,-0.1815148741006851,-0.1281485855579376,0.0890565812587738,-0.1263290345668793,0.01616334915161133,0.00505143404006958,2,0.6479686485590278,-0.01781714060494202,-0.2275365657952987,0.7266678999569467,0.2689788341522217,-0.9498241543769836,-0.1596383601427078,-2.184272766113281,-49.40904235839844,11.05398559570312,2
1596230827.791819,104,0,103159.9839515,-1.380364553484855,1.024989130184194,1.25053510359454,-0.03154836222529411,-0.001693460624665022,-0.1259481757879257,0.152627021074295,0.04323911666870117,-0.1792382597923279,2,0.6464965497734051,-0.01819249132546108,-0.2285777187798821,0.7276422570317648,0.2690741717815399,-0.9491531848907471,-0.1634224951267242,-2.2996826171875,-49.55647277832031,10.68289184570312,2
1596230827.821616,105,0,103160.0140505,-1.373623828346023,1.01737105023685,1.245410968584088,-0.2861956655979156,-0.2741433680057526,-0.04678567126393318,-0.05576878786087036,-0.1001629233360291,0.2103577256202698,2,0.6447461998838401,-0.01707261797589343,-0.2301971914993378,0.7287111351273123,0.2719555199146271,-0.9475275874137878,-0.1680217236280441,-1.994667053222656,-49.62178802490234,10.51681518554688,2
1596230827.851622,106,0,103160.0441495,-1.360867863427437,0.9971984247570552,1.241068609852072,-0.01026447582989931,-0.04254728928208351,-0.09719718992710114,-0.1446907520294189,0.06182682514190674,0.08302962779998779,2,0.641709748544956,-0.01887876449841772,-0.2333920326283408,0.7303288095362253,0.2719644606113434,-0.9461305141448975,-0.1757043749094009,-1.953765869140625,-49.61465454101562,10.35107421875,2
1596230827.881745,107,0,103160.0742485,-1.353146300936638,0.9976941244904931,1.238104862270849,-0.2152005434036255,0.5056184530258179,-0.04030443727970123,-0.01230910420417786,0.1003546714782715,-0.1138083934783936,2,0.6412668784340396,-0.0152355322868537,-0.2313348623681723,0.7314565742684365,0.2744065225124359,-0.9451667666435242,-0.1770893335342407,-1.996780395507812,-49.55603790283203,10.13125610351562,2
1596230827.911768,108,0,103160.1043475,-1.351061208133853,1.00495100011292,1.232054016372817,-0.1113632917404175,0.008028587326407433,-0.1839721202850342,-0.01145896315574646,-0.07428860664367676,-0.08452898263931274,2,0.6409554494992717,-0.009901938896839074,-0.2301307560402802,0.7322005471717419,0.2805067002773285,-0.943173348903656,-0.1781561225652695,-1.823196411132812,-49.78282928466797,9.9300537109375,2
1596230827.941924,109,0,103160.1344465,-1.337475355140064,0.9938948756168251,1.226165671125431,-0.2345781773328781,0.09978780150413513,-0.00605165958404541,-0.01881289482116699,0.01735436916351318,0.04072076082229614,2,0.6385961401944535,-0.007657779886898142,-0.2305168340989696,0.734164948760476,0.2831701636314392,-0.941200315952301,-0.1842726618051529,-1.784934997558594,-49.8525390625,9.553863525390625,2
1596230827.972094,110,0,103160.1645465,-1.330232061148675,0.9899742042362718,1.2242591530162,-0.0254872739315033,0.1977591067552567,-0.08193470537662506,0.05478811264038086,0.118078887462616,-0.1078682541847229,2,0.6377924666642945,-0.006157382392277311,-0.2296970805181803,0.7351339639508021,0.2839451432228088,-0.9405544996261597,-0.1863657087087631,-1.7816162109375,-49.84066772460938,9.3896484375,2
1596230828.002226,111,0,103160.1946455,-1.331784336095247,0.9990354513423313,1.220742182102637,-0.06322672218084335,-0.03625783696770668,0.04621031135320663,0.2816846072673798,-0.07594799995422363,-0.1640448570251465,2,0.6381287509150997,-0.002161448957818363,-0.2284653625060241,0.7352485776492187,0.2884022295475006,-0.9393541216850281,-0.1855740547180176,-1.582107543945312,-50.18605804443359,9.2080078125,2
1596230828.032323,112,0,103160.2247445,-1.316341518462274,0.9698307827987259,1.230010439455765,0.07307016104459763,-0.6074843406677246,0.4432055354118347,0.037636399269104,0.05073791742324829,-0.0004611611366271973,2,0.6366990795183179,-0.01103031412722369,-0.2292352486375362,0.7361681897251188,0.2756673991680145,-0.9424923062324524,-0.1889852285385132,-1.6534423828125,-50.01289367675781,9.350982666015625,2
1596230828.06253,113,0,103160.2548435,-1.306264138072885,0.9456317319226477,1.235226451314081,-0.03403978794813156,-0.3644684255123138,-0.002301820553839207,-0.2056459486484528,0.005494892597198486,0.09713667631149292,2,0.6350588684504496,-0.01843898828586676,-0.2316254107505286,0.7366883361644821,0.2670239806175232,-0.9442228078842163,-0.1927204728126526,-2.257911682128906,-49.69955444335938,9.417999267578125,2
1596230828.092503,114,0,103160.2849425,-1.301708471355266,0.9373714352905868,1.233333489424217,-0.1005453169345856,0.1080949306488037,-0.0119897685945034,-0.1405720710754395,-0.01279306411743164,0.04617792367935181,2,0.6337461111931662,-0.01942293567806577,-0.2331413252613998,0.7373151068129902,0.2668631672859192,-0.9435977339744568,-0.1959772258996964,-1.992416381835938,-49.64761352539062,9.202484130859375,2
1596230828.122621,115,0,103160.3150415,-1.295800274034749,0.9371286118842751,1.229521195209798,-0.1742370575666428,0.1051547154784203,-0.1039469614624977,-0.02059701085090637,0.006794393062591553,-0.01101624965667725,2,0.6329656479373333,-0.01640591142566902,-0.2321923320219722,0.7383576096574526,0.2697126865386963,-0.9423286318778992,-0.1981706619262695,-1.892433166503906,-49.88031768798828,9.184417724609375,2
1596230828.152613,116,0,103160.3451405,-1.287729526798057,0.9291261355696376,1.225433428039165,-0.1091321334242821,-0.03022954612970352,-0.002705880906432867,0.03163504600524902,0.01872026920318604,-0.002791285514831543,2,0.6312264275923429,-0.01549104416537897,-0.2329723525180893,0.7396194524406221,0.2712016701698303,-0.9409526586532593,-0.2026264518499374,-1.889724731445312,-49.83741760253906,9.097381591796875,2
1596230828.183941,117,0,103160.3752395,-1.280536379625625,0.9231761518725,1.224318134872293,-0.06693533062934875,0.009165899828076363,0.02554396912455559,0.05465766787528992,0.03383994102478027,-0.006330907344818115,2,0.6303477086427091,-0.01506482012881824,-0.2325222870901129,0.7405188274511156,0.2708282172679901,-0.9405745267868042,-0.2048696279525757,-1.822235107421875,-50.06830596923828,8.833465576171875,2
1596230828.213171,118,0,103160.4053385,-1.272554464435734,0.9148627895941085,1.225021203159553,-0.07665161788463593,-0.0865800604224205,0.1362960487604141,0.07021546363830566,-0.02277231216430664,-0.02097481489181519,2,0.6295977337193048,-0.01585602204195019,-0.2319735134457513,0.7413119690639037,0.2685914933681488,-0.9408130049705505,-0.2067105621099472,-2.012908935546875,-50.17179870605469,8.71600341796875,2
1596230828.242937,119,0,103160.4354375,-1.244102561540244,0.885956967815291,1.230089811598565,-0.1645670533180237,0.004195335321128368,0.3834922015666962,-0.06653434038162231,-0.009110689163208008,0.01337903738021851,2,0.6276505545334441,-0.01925684666822966,-0.2289928393322993,0.7438051713814543,0.2588082849979401,-0.9425188302993774,-0.2113679051399231,-2.354087829589844,-50.09662628173828,8.57110595703125,2
1596230828.27312,120,0,103160.4655365,-1.228377588844564,0.8773060929563564,1.233020117983673,-0.01496955472975969,0.22263003885746,-0.02981137111783028,-0.07525771856307983,0.04835069179534912,0.0006968975067138672,2,0.6274893136402087,-0.01846401116182225,-0.2249943172749251,0.7451802955029139,0.2548450231552124,-0.9434939622879028,-0.2118324786424637,-2.805099487304688,-50.12200927734375,8.4862060546875,2
1596230828.303179,121,0,103160.4956355,-1.238731879552635,0.8887730735566867,1.229071625150235,0.008102757856249809,-0.05359894037246704,-0.1701832413673401,0.0700322687625885,0.02345740795135498,-0.01059716939926147,2,0.6277865250711773,-0.01620232867297713,-0.226410092838869,0.7445535377941062,0.2601474225521088,-0.9421780705451965,-0.2112431228160858,-2.809310913085938,-49.98825073242188,8.383544921875,2
1596230828.334949,122,0,103160.5257345,-1.235777949968934,0.8806453555984159,1.228526595865146,-0.0419967845082283,-0.2519669234752655,0.1184586808085442,-7.671117782592773e-05,-0.02137506008148193,-0.0139583945274353,2,0.6267636064076717,-0.01813087568647848,-0.2280192695313907,0.7448796677257929,0.258817732334137,-0.9419953227043152,-0.2136773020029068,-2.777931213378906,-50.10272216796875,8.294769287109375,2
1596230828.363606,123,0,103160.5558335,-1.229106247641195,0.8701464872835089,1.230502266261238,-0.01501207146793604,-0.02158631011843681,0.02544496208429337,-0.02339905500411987,0.03469985723495483,0.01039457321166992,2,0.6260875285082698,-0.02057212629561078,-0.2282446918655362,0.7453155985598564,0.2551368474960327,-0.9426565766334534,-0.2151823937892914,-2.586616516113281,-50.04054260253906,8.490509033203125,2
1596230828.393651,124,0,103160.5859325,-1.224168937237502,0.8665822824026493,1.230283346020012,-0.05246581509709358,0.03100173734128475,0.08300540596246719,0.02099776268005371,0.00271981954574585,-0.004388034343719482,2,0.6256806838923883,-0.02028720408564461,-0.2275833046769601,0.7458672092312045,0.2545258402824402,-0.942583441734314,-0.2162242233753204,-2.538368225097656,-50.13304138183594,8.27081298828125,2
1596230828.423603,125,0,103160.6160315,-1.217017121346138,0.8612902711122566,1.230838080022272,-0.04613399505615234,0.09749539196491241,0.01233911514282227,-0.04843538999557495,0.009682655334472656,0.0141913890838623,2,0.6252826793537815,-0.02019798395972333,-0.2264088111679792,0.7465604090946679,0.2529809772968292,-0.9427685737609863,-0.2172272205352783,-2.712303161621094,-50.13822174072266,8.449920654296875,2
1596230828.454321,126,0,103160.6461305,-1.216088439634113,0.8634609024304356,1.229463820056835,-0.008297853171825409,0.03753682225942612,-0.05120034143328667,-0.01399180293083191,0.01280272006988525,-0.0181354284286499,2,0.6252133290468613,-0.0186698027096264,-0.2257818838621323,0.7468481597046862,0.2544366717338562,-0.9423094391822815,-0.2175194621086121,-2.766456604003906,-50.10163879394531,8.058258056640625,2
1596230828.48432,127,0,103160.6762295,-1.225314339088042,0.8659714527881799,1.230885194274786,0.2714732885360718,-0.3687288463115692,0.01928294077515602,0.02428624033927917,0.01647347211837769,-0.07543504238128662,2,0.625740029742856,-0.02106141721402224,-0.2280263286870239,0.7456604486835039,0.2539610862731934,-0.942784309387207,-0.2160116583108902,-2.737556457519531,-50.10843658447266,8.28570556640625,2
1596230828.514065,128,0,103160.7063285,-1.228409605177776,0.8648817695264659,1.233165417289112,-0.1222415789961815,-0.01009254343807697,0.02364880777895451,-0.04068031907081604,-0.002488195896148682,0.05036962032318115,2,0.6261129044073216,-0.02314811437850034,-0.2288577398104463,0.7450308270286549,0.2520894408226013,-0.9435420632362366,-0.2148935943841934,-2.643707275390625,-49.79708099365234,8.54595947265625,2
1596230828.543977,129,0,103160.7364275,-1.22082786495784,0.8607735591232971,1.231070379905604,-0.09634663909673691,0.1857718974351883,-0.02427093312144279,-0.07488644123077393,0.02996385097503662,0.01433157920837402,2,0.6252388135040705,-0.02165451661404641,-0.2279249952672856,0.7460947656760608,0.2527024745941162,-0.9428460001945496,-0.2172150164842606,-2.665817260742188,-49.87979888916016,8.184600830078125,2
