loggingTime,loggingSample,identifierForVendor,motionTimestamp_sinceReboot,motionYaw,motionRoll,motionPitch,motionRotationRateX,motionRotationRateY,motionRotationRateZ,motionUserAccelerationX,motionUserAccelerationY,motionUserAccelerationZ,motionAttitudeReferenceFrame,motionQuaternionX,motionQuaternionY,motionQuaternionZ,motionQuaternionW,motionGravityX,motionGravityY,motionGravityZ,motionMagneticFieldX,motionMagneticFieldY,motionMagneticFieldZ,motionMagneticFieldCalibrationAccuracy
1596230225.941307,1,0,102558.11698925,2.091074373982045,-1.308308358391354,1.132655508836294,-0.07070592045783997,0.1593950092792511,0.02321434766054153,-0.01772981882095337,0.002987980842590332,0.02438962459564209,2,0.6577675565688871,0.1108959090209956,0.4156866665602996,0.6182625522270931,-0.4097248315811157,-0.9055420160293579,-0.1100878790020943,-24.12023162841797,-41.97222137451172,17.22897338867188,2
1596230225.96202,2,0,102558.14708725,2.088446706364657,-1.300757793770877,1.132721159586483,-0.01725822314620018,0.146457627415657,-0.0525420568883419,-0.02717199921607971,0.05083745718002319,0.009927511215209961,2,0.6563436085336876,0.1123915157429826,0.4173341768608169,0.6183957586757576,-0.4088243544101715,-0.905569851398468,-0.1131624281406403,-24.20863342285156,-41.94207763671875,17.01119995117188,2
1596230225.992115,3,0,102558.17718425,2.088990679841547,-1.296269310675708,1.136022746770948,0.06120575219392776,0.2045553624629974,-0.1271607875823975,-0.01142960786819458,0.02942484617233276,-0.007575273513793945,2,0.655468984396204,0.1151859444570285,0.4179407555583506,0.6183996899718553,-0.4054324924945831,-0.906965434551239,-0.1141852140426636,-24.24787139892578,-42.05093383789062,16.84368896484375,2
1596230226.022684,4,0,102558.20728225,2.089749214008036,-1.29166159691932,1.139380291667324,-0.002049645408987999,0.09329376369714737,-0.06694649904966354,0.01440593600273132,0.0149378776550293,-0.02873539924621582,2,0.6545564274630427,0.118108686717678,0.4186322323962748,0.6183472459578456,-0.4019724726676941,-0.908374547958374,-0.1152124404907227,-24.33702087402344,-42.16578674316406,16.65478515625,2
1596230226.052261,5,0,102558.23737925,2.088678944137369,-1.292257782634823,1.140393198682921,-0.05066643282771111,-0.1228619739413261,0.002240889240056276,0.08015269041061401,0.003312230110168457,-0.01415908336639404,2,0.6547730100502587,0.1179510405830411,0.4177884427283358,0.6187185848512053,-0.4011561870574951,-0.9087976217269897,-0.1147197112441063,-24.08978271484375,-42.29807281494141,16.76272583007812,2
1596230226.082512,6,0,102558.267477875,2.094577999618053,-1.301749718792248,1.137355124746674,0.09973026812076569,-0.1846829950809479,0.1946245282888412,0.02436372637748718,-0.01685214042663574,-0.06975501775741577,2,0.6563272863246057,0.1158202701638258,0.4174528902523484,0.6177000695839318,-0.4048870801925659,-0.9075258374214172,-0.1116403192281723,-24.06733703613281,-41.87950134277344,16.86932373046875,2
1596230226.112485,7,0,102558.297574875,2.097372086034386,-1.311785725667321,1.131346317489619,-0.04957180470228195,-0.3021121323108673,0.1862702518701553,-0.01899087429046631,-0.007845163345336914,-0.03012251853942871,2,0.6581074304083301,0.111407447927938,0.4168968953545646,0.6169926924290008,-0.4112507402896881,-0.904985785484314,-0.1089659780263901,-24.34610748291016,-41.95793914794922,16.87750244140625,2
1596230226.142706,8,0,102558.327672875,2.099327544083462,-1.323124543822678,1.127679569127246,-0.05175767838954926,-0.3594653010368347,0.01658330298960209,-0.009242832660675049,0.02435064315795898,-0.01436358690261841,2,0.6602690020814751,0.1071934158495105,0.4149080743886746,0.6167705062160538,-0.4156744182109833,-0.9034197330474854,-0.1051088348031044,-24.42555999755859,-41.80753326416016,17.33602905273438,2
1596230226.173052,9,0,102558.357770875,2.092044368358282,-1.324195171474947,1.136014123658162,0.1269798427820206,-0.2044892907142639,-0.3913591504096985,-0.038624107837677,0.08082771301269531,-0.03284049034118652,2,0.6610769301214892,0.1075465846959635,0.4096968790235715,0.6193218709837814,-0.4084703922271729,-0.9069617986679077,-0.1028220504522324,-24.24237060546875,-41.898681640625,17.331298828125,2
1596230226.203069,10,0,102558.387867875,2.101228359239927,-1.335280135434602,1.141509345622433,0.05518880113959312,0.09434941411018372,0.1047042235732079,0.09876155853271484,-0.0881354808807373,0.04442209005355835,2,0.662959876090103,0.1091900350002984,0.4071474158293759,0.6187025065468741,-0.4047324955463409,-0.9092627763748169,-0.09712348133325577,-23.54979705810547,-41.82435607910156,17.6390380859375,2
1596230226.23291,11,0,102558.417965875,2.107166925440013,-1.339614003414889,1.137425812016877,0.1524611413478851,-0.1609268635511398,0.08662183582782745,0.06805422902107239,0.027199387550354,-0.05053472518920898,2,0.6634452989801167,0.1083100677530074,0.4088242314779872,0.6172294542478125,-0.4087606966495514,-0.9075555205345154,-0.0962185263633728,-23.75070190429688,-42.10958099365234,17.6298828125,2
1596230226.263077,12,0,102558.448062875,2.115897950389687,-1.357037241814481,1.138495721475628,0.01938378438353539,-0.4288899302482605,-0.01725048758089542,0.1086300909519196,-0.004664063453674316,0.003211438655853271,2,0.6665404289384519,0.1062341419811134,0.4053895230867415,0.6165206474112912,-0.4094259440898895,-0.9080042839050293,-0.08887632936239243,-23.59661865234375,-41.78529357910156,17.83395385742188,2
1596230226.293072,13,0,102558.478160875,2.120484974688241,-1.372331834645313,1.133250831168592,0.1536681652069092,-0.3948173820972443,0.4347260296344757,0.2220466136932373,-0.06806099414825439,-0.1349470615386963,2,0.6693303879160286,0.1011228987644626,0.4033318313207415,0.615706573358925,-0.4154004454612732,-0.9057943820953369,-0.08354198187589645,-23.48025512695312,-41.60794067382812,18.04232788085938,2
1596230226.323331,14,0,102558.508257875,2.146274552194438,-1.406892184925038,1.119841080558243,0.3191354274749756,-0.3155233561992645,0.4292292594909668,-0.08523860573768616,0.06702780723571777,-0.1274933815002441,2,0.6749480674241983,0.09427617169043373,0.4037835267192307,0.61034092990457,-0.4299845993518829,-0.9000312089920044,-0.07111421972513199,-23.84562683105469,-41.29397583007812,18.82009887695312,2
1596230226.353324,15,0,102558.538355875,2.170221623276685,-1.435762091223,1.115608402477583,0.3671587109565735,-0.1983507573604584,-0.003532469272613525,-0.1981091201305389,0.07976782321929932,-0.08341693878173828,2,0.6796560212124801,0.09206089368222198,0.4025922464879057,0.6062275599279998,-0.4356288015842438,-0.8981783986091614,-0.0591849684715271,-24.04026031494141,-41.03489685058594,19.15554809570312,2
1596230226.38355,16,0,102558.568453875,2.198300399938665,-1.46819347390556,1.117155765520999,0.4480540156364441,-0.2311171889305115,0.02618007175624371,-0.04929885268211365,0.07868623733520508,-0.06943696737289429,2,0.6848496364664556,0.09240134694727714,0.3995402371326357,0.6023376986602864,-0.4359363317489624,-0.898857593536377,-0.04488593339920044,-24.08032989501953,-40.57412719726562,20.0235595703125,2
1596230226.413513,17,0,102558.598550875,2.233679922719132,-1.502748428107187,1.119098341390683,0.5886479020118713,-0.03255369141697884,-0.07767423987388611,-0.09980630874633789,0.007968544960021973,-0.1129719018936157,2,0.6900395626517239,0.09489791069211023,0.3976844414704234,0.5972327087505007,-0.4354837238788605,-0.8997072577476501,-0.02967957779765129,-23.92391967773438,-40.40365600585938,20.69671630859375,2
1596230226.443679,18,0,102558.628648875,2.2750478677669,-1.541147257681481,1.12338012489208,0.5746583938598633,-0.08671023696660995,-0.1703753918409348,-0.1770413517951965,0.1020786762237549,-0.05949807167053223,2,0.6954993660156809,0.09933739604283331,0.3953975903603916,0.5916701471519064,-0.432447612285614,-0.9015679359436035,-0.01282542757689953,-23.80724334716797,-40.17388916015625,21.52609252929688,2
1596230226.473711,19,0,102558.658745875,2.318211813478464,-1.580441561028969,1.134094307225743,0.7487407326698303,0.1256437748670578,-0.5218074917793274,-0.1537252068519592,0.05826246738433838,-0.1048305034637451,2,0.7004856256308669,0.1065814229532011,0.3912419781235539,0.5872734548390918,-0.4229338765144348,-0.9061514735221863,0.004079422913491726,-23.34458160400391,-40.01234436035156,22.19573974609375,2
1596230226.503971,20,0,102558.688843875,2.377260692159753,-1.627890184819438,1.14687849840745,0.7195240259170532,0.3044701218605042,-0.2866449356079102,-0.02903026342391968,0.05104875564575195,-0.04834485054016113,2,0.705576310014598,0.1178899331748661,0.3881005226375632,0.5810697583376334,-0.4106645286083221,-0.91148442029953,0.02347193099558353,-23.06244659423828,-39.53826904296875,22.87515258789062,2
1596230226.533928,21,0,102558.718940875,2.43062742205032,-1.665928890526524,1.152136391812106,0.7983169555664062,0.2223169803619385,-0.255133330821991,-0.003598242998123169,0.01334172487258911,0.02552294731140137,2,0.709251252043051,0.1275576361816711,0.3885688269039822,0.5742003989156707,-0.4046985507011414,-0.9136345386505127,0.03861657902598381,-22.82523345947266,-39.19155120849609,23.49057006835938,2
1596230226.564101,22,0,102558.749038875,2.486719808172282,-1.716192071000151,1.15820907263873,0.5073716044425964,0.1546320468187332,-0.2462457865476608,0.1830326020717621,-0.05328017473220825,0.365703821182251,2,0.7146849293939719,0.1351789100559904,0.3850190898929896,0.5680779708211534,-0.3967503607273102,-0.9160864353179932,0.0580957718193531,-22.66387176513672,-39.1124267578125,24.07464599609375,2
1596230226.59408,23,0,102558.779136875,2.511999410716781,-1.720165161545559,1.159135898719964,0.3049108386039734,0.7792545557022095,0.1151903420686722,0.3556654751300812,-0.09086769819259644,0.1657178401947021,2,0.7135923834670213,0.1433824402332871,0.3905030427917044,0.5636797399969913,-0.3956764340400696,-0.9164577126502991,0.05954522639513016,-22.92577362060547,-38.76023101806641,24.43975830078125,2
1596230226.62415,24,0,102558.809233875,2.539293481290851,-1.727967596877684,1.150091374446027,0.4648222923278809,0.283261626958847,0.2920225560665131,0.1872706413269043,-0.0110011100769043,-0.1137312650680542,2,0.7141795751129321,0.1480211835638255,0.3977654181790148,0.5566148021515941,-0.4033703207969666,-0.9128012657165527,0.06392547488212585,-23.21072387695312,-38.58335113525391,24.34957885742188,2
1596230226.654379,25,0,102558.839331875,2.559167038825424,-1.743894760459111,1.143567020188455,0.09429800510406494,-0.1101761907339096,-0.002726059406995773,-0.0319361686706543,0.003352999687194824,0.06996595859527588,2,0.716654016098466,0.1486268387938348,0.3992813499622893,0.5521698148501387,-0.4081586599349976,-0.9101172685623169,0.0713658332824707,-23.840576171875,-38.04014587402344,24.69296264648438,2
1596230226.684537,26,0,102558.869428875,2.5618528329224,-1.74552589811299,1.145912601122942,0.1119176968932152,0.2413084656000137,-0.1037795394659042,-0.09017091989517212,0.08282661437988281,0.06385409832000732,2,0.7164945778754079,0.1498854072765839,0.398831045786194,0.5523620039107181,-0.4059385657310486,-0.9110866785049438,0.07166022807359695,-23.738525390625,-38.09007263183594,24.87173461914062,2
1596230226.714388,27,0,102558.899526875,2.59470104894022,-1.764181856626947,1.146218316163007,0.5976178050041199,0.5365068316459656,-0.08212590962648392,-0.01866307854652405,0.0501784086227417,-0.1971724033355713,2,0.7176700322682792,0.1566307585193407,0.4010941207368125,0.5473025615952043,-0.4042576253414154,-0.9112126231193542,0.07916694134473801,-23.83704376220703,-37.82228851318359,24.92703247070312,2
1596230226.744676,28,0,102558.929623875,2.631604143290712,-1.77992445498117,1.142915339453064,0.3897159397602081,0.5078701376914978,0.1064392700791359,-0.004620134830474854,-0.04001212120056152,0.08420693874359131,2,0.7183239438681595,0.1645702981395619,0.4063028499127841,0.5402272241730587,-0.4059034287929535,-0.90984708070755,0.08614534139633179,-24.17542266845703,-37.43123626708984,25.22845458984375,2
1596230226.774686,29,0,102558.959721875,2.652647082737972,-1.789842380686065,1.138001270681129,0.3233382403850555,0.320827305316925,0.07323471456766129,0.1993515193462372,0.03127408027648926,0.1342470645904541,2,0.7192776401332183,0.1679532699836936,0.4096015338722933,0.5354046520785574,-0.4093885123729706,-0.9077970385551453,0.09113724529743195,-24.34001922607422,-37.05902099609375,25.38314819335938,2
1596230226.804883,30,0,102558.989819875,2.671255337897376,-1.793215199493334,1.131110336230205,0.1533822268247604,0.4701147973537445,0.2852261364459991,-0.03671649098396301,-0.06217670440673828,0.1244782209396362,2,0.7193657659166806,0.1716404759869459,0.4150069382668671,0.5299261008118538,-0.4151700437068939,-0.9048853516578674,0.09389511495828629,-24.86058044433594,-36.85076904296875,25.48696899414062,2
1596230226.834962,31,0,102559.019916875,2.676076333747744,-1.784478667431676,1.122601329814783,0.2265171557664871,0.4838716089725494,0.1567642241716385,-0.1738280951976776,0.04172384738922119,-0.07780838012695312,2,0.718325128039672,0.173078007461878,0.4214534356891493,0.5257661732314338,-0.4234840571880341,-0.9012307524681091,0.09189397096633911,-25.37137603759766,-36.65703582763672,25.39602661132812,2
1596230226.865064,32,0,102559.050014875,2.688082080811681,-1.782433859483739,1.120480914546823,0.09947878867387772,0.3099232017993927,-0.05945700407028198,-0.1225211620330811,0.05862778425216675,0.08150708675384521,2,0.7171392227874719,0.1772733477951318,0.4258372426497521,0.5224443546360691,-0.4255382716655731,-0.9003098607063293,0.09142901003360748,-25.92634582519531,-36.20790100097656,25.29690551757812,2
1596230226.895293,33,0,102559.080111875,2.693028353371102,-1.77250849881231,1.121848811653634,-0.01067590527236462,0.5756220817565918,0.06722566485404968,0.1331817209720612,-0.05438637733459473,0.1805248260498047,2,0.7143769391886039,0.182051370276658,0.4303557151038803,0.5208809677888698,-0.4252181947231293,-0.9009044170379639,0.08695422857999802,-26.28855895996094,-36.07453918457031,24.9049072265625,2
1596230226.925255,34,0,102559.110209875,2.674934547351596,-1.75088530746394,1.114495661538038,-0.4485207200050354,-0.2574696838855743,0.3799684941768646,0.2126103043556213,-0.03167521953582764,0.1954231262207031,2,0.7123463177331029,0.1789552446486236,0.4351107277177497,0.5207845981952577,-0.4335047900676727,-0.8976886868476868,0.0789245143532753,-26.90149688720703,-36.21989440917969,24.41748046875,2
1596230226.955236,35,0,102559.140307875,2.63098949727871,-1.722517645491447,1.106812732098908,-0.6685468554496765,-0.4029012024402618,0.4711396992206573,0.3085135817527771,-0.1036758422851562,0.1971284151077271,2,0.7109762379905807,0.1683194503403425,0.4355798819661814,0.5257867355996111,-0.4423736333847046,-0.8942768573760986,0.06763729453086853,-27.15296173095703,-36.47517395019531,24.06411743164062,2
1596230226.985523,36,0,102559.170404875,2.56577579564946,-1.676401657895272,1.083482548113088,-1.356372117996216,-0.3228639960289001,1.346084117889404,0.03811010718345642,-0.1762408018112183,0.5468627214431763,2,0.7086909123567104,0.1497875996140979,0.4406027233891779,0.5302736477063538,-0.4656454622745514,-0.8835938572883606,0.04935826733708382,-27.60753631591797,-36.20028686523438,23.4896240234375,2
1596230227.015457,37,0,102559.200502875,2.445578232229344,-1.578925364893926,1.045533917951313,-2.075442552566528,-0.2703637778759003,1.04719078540802,-0.1978126764297485,0.1815577745437622,0.3495641946792603,2,0.698182173322169,0.120746605669252,0.4527086138609528,0.5413102489773987,-0.5014234185218811,-0.8651924133300781,0.004076180048286915,-28.32485198974609,-36.498046875,22.60003662109375,2
1596230227.045986,38,0,102559.230599875,2.346459417766983,-1.504033077433927,1.029971952081399,-1.567135810852051,-0.3953315019607544,0.1315515786409378,-0.1498664617538452,0.04930555820465088,0.06354242563247681,2,0.6874098176814939,0.1014604152441736,0.4557538391835656,0.5562930453106496,-0.5136958956718445,-0.8572845458984375,-0.034347053617239,-29.37628936767578,-37.06449127197266,20.48446655273438,2
1596230227.075678,39,0,102559.26069775,2.238568126591683,-1.439514458554449,1.014652739850792,-1.874993801116943,-1.516865968704224,0.4228244721889496,0.130815327167511,0.3588064312934875,-0.2977868914604187,2,0.6778402068934587,0.07732569118337229,0.4516472573480041,0.5749507026574348,-0.5233724117279053,-0.8492972850799561,-0.06910677999258041,-29.00550842285156,-37.79053497314453,19.32235717773438,2
1596230227.105833,40,0,102559.29079475,2.18226981273849,-1.446550633969148,1.003978409310155,-0.4392388164997101,-1.751489281654358,0.07162026315927505,0.3563094139099121,-0.08295881748199463,-0.4585434198379517,2,0.6811742034768482,0.05225482312658897,0.4360350223188365,0.5857855402979741,-0.5328114032745361,-0.843613862991333,-0.06654227524995804,-28.59297943115234,-38.12814331054688,19.03909301757812,2
1596230227.135854,41,0,102559.32089275,2.153618434721697,-1.459827434449738,0.9897798483314526,-0.7221830487251282,-0.6593538522720337,0.8886494636535645,0.2554752230644226,-0.09478497505187988,0.08273798227310181,2,0.6844656054758024,0.03339652448286107,0.4272611960141355,0.5897791495349707,-0.5454980134963989,-0.835905134677887,-0.0607830137014389,-28.29996490478516,-38.42220306396484,19.37939453125,2
1596230227.166046,42,0,102559.35099075,2.125480596162127,-1.454042620411808,0.9551133546529632,-0.6156100034713745,-0.7037187814712524,0.9486362338066101,-0.3119431138038635,0.08676409721374512,-0.07512712478637695,2,0.6827865376747453,0.01286451937936589,0.4311429786477104,0.5897057652715068,-0.5735846757888794,-0.816379189491272,-0.06727409362792969,-28.76264190673828,-38.00129699707031,19.30084228515625,2
1596230227.196374,43,0,102559.38108775,2.096916286857772,-1.45271442822536,0.9435508322778018,-0.4991904497146606,-0.4578663408756256,-0.1829330325126648,-0.424246072769165,0.283905029296875,-0.1078698635101318,2,0.6822227237951405,-0.0006996038084427503,0.4265462457025467,0.5938266506301942,-0.5828299522399902,-0.809647262096405,-0.06914333254098892,-29.04811096191406,-37.82419586181641,19.30511474609375,2
1596230227.226228,44,0,102559.41118575,2.082975331482765,-1.44526973823894,0.9450000113245357,-0.0305965431034565,0.005511053837835789,0.1215002685785294,-0.1376044154167175,0.08228194713592529,-0.3427433371543884,2,0.6806805400275164,-0.002705586828692153,0.4245041695863151,0.5970451323378027,-0.5811341404914856,-0.8104969263076782,-0.07333336770534515,-28.78775024414062,-38.22980499267578,18.96206665039062,2
1596230227.25627,45,0,102559.44128275,2.085907765787085,-1.454211615403958,0.9401888432945759,-0.03599657863378525,-0.5647406578063965,0.1665141880512238,0.03323030471801758,-0.04962748289108276,-0.122166633605957,2,0.6823994998437023,-0.006123098552629325,0.4237540723861123,0.5955886834614412,-0.5856328010559082,-0.807669460773468,-0.06858686357736588,-28.92283630371094,-38.31060028076172,19.04653930664062,2
1596230227.286464,46,0,102559.47138075,2.068962025410093,-1.462172903991424,0.9325046955464227,-0.6401673555374146,-0.7238037586212158,0.2033565640449524,-0.0485457181930542,0.01390182971954346,0.2016512155532837,2,0.6836752026841471,-0.01707530062149437,0.418252537654759,0.5977973088494959,-0.5923129320144653,-0.8031148314476013,-0.06459330022335052,-28.62023162841797,-38.07266235351562,19.29928588867188,2
1596230227.316443,47,0,102559.50147775,2.043280363552876,-1.461544454494897,0.9286764014775882,-0.3017593026161194,-0.6583974957466125,-0.05647822096943855,-0.0527263879776001,0.03270232677459717,0.09027642011642456,2,0.6830945957747159,-0.0270488118975602,0.4118981880806347,0.6024865846305454,-0.595323920249939,-0.8008279204368591,-0.06530027091503143,-28.53046417236328,-38.33974456787109,19.11163330078125,2
1596230227.34655,48,0,102559.53157575,2.022163228744768,-1.466845951024432,0.9272710548096117,-0.6732444167137146,-0.8461318016052246,0.1794869303703308,0.1696513891220093,-0.06881380081176758,0.1474671363830566,2,0.6837739774655704,-0.03637533916058217,0.4041239219336598,0.6064765687427038,-0.5967804193496704,-0.7999855279922485,-0.06225996464490891,-27.86055755615234,-38.64666748046875,19.43692016601562,2
1596230227.376593,49,0,102559.56167375,1.985937112900524,-1.462155094560382,0.9166104614818219,-0.6243494153022766,-0.8509217500686646,0.1986716538667679,-0.03016144037246704,0.03299403190612793,-0.0903090238571167,2,0.6814640081506649,-0.05115617388637561,0.397893593818047,0.6121035158597951,-0.6049260497093201,-0.7935435771942139,-0.06597970426082611,-27.51824188232422,-38.7393798828125,19.15676879882812,2
1596230227.406869,50,0,102559.59177075,1.97069255095685,-1.473663928952212,0.9177795469348159,-0.151637077331543,-0.5907101631164551,-0.2356134057044983,-0.1956979632377625,0.0994952917098999,-0.09218144416809082,2,0.6833753270234527,-0.05946793190627214,0.3889364235603537,0.6149716860296084,-0.6047213077545166,-0.79425448179245,-0.05892345681786537,-27.2608642578125,-38.89342498779297,19.32608032226562,2
1596230227.436812,51,0,102559.62186875,1.95350119512597,-1.466241802406473,0.921444354880577,-0.4655372500419617,0.1158912554383278,-0.04813813418149948,-0.1552881598472595,0.02166855335235596,0.07094758749008179,2,0.6816425427822905,-0.06172909319541853,0.3850517354082028,0.6191027885604243,-0.6013686060905457,-0.7964758276939392,-0.06310592591762543,-26.88703918457031,-39.09217071533203,19.06369018554688,2
1596230227.467312,52,0,102559.65196575,1.940438840170947,-1.451405981740287,0.9247704420391916,0.02247460559010506,0.09168361872434616,-0.3390123844146729,-0.0655745267868042,0.09323692321777344,-0.1769291162490845,2,0.6786038585541598,-0.06037013490966858,0.3850272244195353,0.622580365959282,-0.5977324247360229,-0.7984825968742371,-0.07170449942350388,-26.97164154052734,-39.63106536865234,18.74383544921875,2
1596230227.497024,53,0,102559.68206375,1.94099943744111,-1.446753384611714,0.9367061693208337,-0.03264947608113289,0.3733921051025391,-0.2276141047477722,0.3102556467056274,-0.01568782329559326,0.006985127925872803,2,0.6785182679013616,-0.0544316695833752,0.3831288149890905,0.6243897795514673,-0.5878929495811462,-0.8056110739707947,-0.0733003094792366,-26.50840759277344,-39.68724822998047,18.58953857421875,2
1596230227.527218,54,0,102559.71216075,1.937286140093093,-1.437331627065032,0.9300575632370923,-0.05600139871239662,-0.07929255813360214,0.4324690103530884,0.09115695953369141,-0.07562124729156494,-0.135838508605957,2,0.6761549765778352,-0.05514519796313647,0.3871953510613525,0.6243822131264747,-0.5924714803695679,-0.8016543388366699,-0.07954690605401993,-26.59073638916016,-39.74954223632812,18.44625854492188,2
1596230227.557232,55,0,102559.74225875,1.942257129632407,-1.438261438304245,0.9273774759615763,0.1773824095726013,0.4785650074481964,-0.1207173764705658,0.02763831615447998,0.06819885969161987,-0.07373166084289551,2,0.6762881859452748,-0.05472165482695374,0.3892499013630768,0.6229963550074444,-0.5946729779243469,-0.800049364566803,-0.07927966117858887,-27.08100128173828,-39.51003265380859,18.41217041015625,2
1596230227.58747,56,0,102559.77235675,1.955565330316174,-1.429086473469666,0.9254414343261007,0.3213449418544769,0.585943341255188,0.3738799691200256,0.1871813535690308,-0.05625557899475098,-0.06961625814437866,2,0.6746949981646247,-0.04807472276883032,0.3970747455498285,0.620328351866599,-0.5954529047012329,-0.7988863587379456,-0.08495096117258072,-27.12361145019531,-39.35963439941406,18.1690673828125,2
1596230227.61738,57,0,102559.80245375,1.967263551943702,-1.430876440316454,0.9131010197943296,0.005439355969429016,-0.1088617593050003,0.2883158326148987,-0.1404026746749878,-0.01594299077987671,-0.03822743892669678,2,0.674505401754411,-0.04915014212848509,0.4038215392788833,0.6160802776650744,-0.6053205132484436,-0.7914031744003296,-0.08525345474481583,-27.93550109863281,-39.22624206542969,17.9437255859375,2
1596230227.650004,58,0,102559.83255175,1.969543891233958,-1.435957623509329,0.9141135102646649,0.1937379240989685,0.03829455003142357,-0.2588068544864655,-0.2118977308273315,0.08115017414093018,-0.06484723091125488,2,0.675653410137495,-0.04957861099892658,0.4025032080946847,0.6156505613042235,-0.6049515008926392,-0.7920216917991638,-0.08206886053085327,-28.07730102539062,-39.10869598388672,18.14935302734375,2
1596230227.677634,59,0,102559.86264875,1.983513404535523,-1.434276777612123,0.9201173130646753,0.3511965274810791,0.7133358716964722,0.05955461785197258,0.01564347743988037,0.02467000484466553,-0.003820419311523438,2,0.6760203054010381,-0.04216720779252517,0.4055552098829438,0.613794393573271,-0.6000910997390747,-0.7956727147102356,-0.0824369490146637,-27.89395904541016,-39.15926361083984,18.14031982421875,2
1596230227.710069,60,0,102559.89274675,2.000163146090118,-1.42823426401762,0.9190763117503732,0.2895125150680542,0.5127997398376465,-0.07059749960899353,-0.06892645359039307,0.02229094505310059,-0.06472468376159668,2,0.6750410327805667,-0.03507203556848382,0.4130043144753255,0.6103417835005382,-0.6004015803337097,-0.7950416803359985,-0.08617911487817764,-28.1832275390625,-38.71596527099609,18.26361083984375,2
1596230227.737816,61,0,102559.92284475,2.014055349832908,-1.427742164218924,0.9255287128245142,0.3567628264427185,0.3317601680755615,-0.1731241494417191,-0.05801540613174438,0.08443784713745117,-0.09415984153747559,2,0.6755381092270525,-0.02788475062572265,0.4154718988363342,0.6084849237830873,-0.5952690839767456,-0.7989388704299927,-0.08574140816926956,-28.26997375488281,-38.70773315429688,18.05838012695312,2
1596230227.770269,62,0,102559.95294175,2.034470674202572,-1.431836879783752,0.9327961431593927,0.4762609302997589,0.4940267205238342,-0.2182905822992325,-0.09367525577545166,0.02819299697875977,-0.07715451717376709,2,0.6770290204540925,-0.01957803235073807,0.4181111101414794,0.6053359570462954,-0.5898492932319641,-0.803288459777832,-0.08249681442975998,-28.32127380371094,-38.62907409667969,18.48284912109375,2
1596230227.797999,63,0,102559.98303975,2.059237436843093,-1.435719619878791,0.9438661361494688,0.5911170840263367,0.5465452671051025,-0.3831295967102051,0.02382189035415649,0.01024389266967773,-0.008719742298126221,2,0.6785491593131497,-0.008322607889713285,0.4209708441600929,0.6019014242181853,-0.5813176035881042,-0.8098322749137878,-0.07900354266166687,-28.43687438964844,-38.66347503662109,18.61676025390625,2
1596230227.83047,64,0,102560.01313675,2.085644191791141,-1.443360172192925,0.957556356829806,0.4759390652179718,0.3803409934043884,-0.3053616583347321,0.2094894647598267,-0.04710745811462402,0.05859875679016113,2,0.6807473159824462,0.003348250874742942,0.4222285686792226,0.5985776015276136,-0.5708535313606262,-0.8177876472473145,-0.07314376533031464,-28.14750671386719,-38.59774017333984,18.7255859375,2
1596230227.858155,65,0,102560.04323475,2.100775318214434,-1.45061316377661,0.9617343435130893,0.2011082023382187,-0.08521741628646851,0.07215666770935059,-0.1381425857543945,-0.009902775287628174,-0.03709530830383301,2,0.682380101752964,0.007860409388287748,0.4230362874541143,0.5961007197650332,-0.5679718852043152,-0.8201850056648254,-0.06859122216701508,-28.28806304931641,-38.57208251953125,19.04165649414062,2
1596230227.890253,66,0,102560.07333275,2.118465267615003,-1.46211504248475,0.9692055993023464,0.5188981890678406,0.4963380992412567,-0.692238986492157,-0.5264602899551392,0.1648927927017212,-0.03890341520309448,2,0.6849319835190253,0.01320368332006389,0.4221541351271639,0.593700118630019,-0.562615692615509,-0.824436366558075,-0.06138768047094345,-28.27690887451172,-38.838134765625,19.13943481445312,2
1596230227.91845,67,0,102560.10342975,2.143720860726328,-1.455170459808023,1.000566457569374,0.6309962272644043,1.323524713516235,-1.009487152099609,-0.1416985392570496,0.1176034808158875,0.1215304732322693,2,0.6838227174850537,0.03531389490905984,0.4227340993540885,0.5936627376077921,-0.5362212657928467,-0.8417769074440002,-0.06227884069085121,-27.87779998779297,-38.71044158935547,19.21371459960938,2
1596230227.950199,68,0,102560.13352775,2.169601611477255,-1.438600308983025,1.023273183379051,0.3825806379318237,0.9826661348342896,-0.4237501323223114,0.04171109199523926,0.003097474575042725,0.08385729789733887,2,0.6800033119327639,0.05732980816193861,0.4293109920033436,0.5916088048794457,-0.5160321593284607,-0.8538165092468262,-0.0686175748705864,-27.36661529541016,-38.80698394775391,18.75274658203125,2
1596230227.978606,69,0,102560.16362475,2.182249427203291,-1.430807358659588,1.038117994731536,0.2179303616285324,0.4040279984474182,-0.5474364757537842,0.06781899929046631,0.03640830516815186,0.03684455156326294,2,0.6780558057157375,0.06935512423494583,0.4312839510539843,0.5911213211008971,-0.5028746128082275,-0.8614500164985657,-0.07086037844419479,-27.39743041992188,-39.1263427734375,18.81051635742188,2
1596230228.010239,70,0,102560.19372275,2.190872451580154,-1.425948595516118,1.055762384678774,0.2869306802749634,0.5205491781234741,-0.62014240026474,-5.945563316345215e-05,0.08975708484649658,0.03935861587524414,2,0.676774881128175,0.08016821282075121,0.4302205325843549,0.5919959531844632,-0.4874063730239868,-0.8702760338783264,-0.07109763473272324,-27.0770263671875,-39.30185699462891,18.78350830078125,2
1596230228.038787,71,0,102560.22381975,2.210164648640193,-1.419587692391578,1.078858088995558,0.474683940410614,0.9836458563804626,-0.7109373807907104,0.08264172077178955,-0.06360602378845215,0.1468936800956726,2,0.6745463007839416,0.09701871766182762,0.4311679843621681,0.5913280423675931,-0.4669457674026489,-0.8814190030097961,-0.0711493119597435,-26.62821197509766,-39.67243194580078,18.63729858398438,2
1596230228.070165,72,0,102560.25391725,2.22189106332383,-1.40254956579394,1.095425138182296,0.01313333120197058,0.6869549155235291,-0.3039576411247253,0.2403337955474854,-0.1331291794776917,0.2798529863357544,2,0.6701658074753832,0.1120648466205548,0.4353901946879929,0.5905546224044145,-0.4512064158916473,-0.8891229033470154,-0.07663851976394653,-26.49312591552734,-40.00562286376953,18.55657958984375,2
1596230228.099006,73,0,102560.28401525,2.212010568953226,-1.383880672869445,1.099621370039317,-0.1801176518201828,0.02710995078086853,-0.1141853854060173,0.1567000150680542,-0.02051836252212524,0.1117392778396606,2,0.6666388683305187,0.1158255417781097,0.4374439126584414,0.5923005935111132,-0.4460271596908569,-0.8910355567932129,-0.08435412496328354,-26.35475921630859,-40.21929168701172,18.15817260742188,2
1596230228.130409,74,0,102560.31411225,2.197191423831154,-1.372876767278031,1.10555561789286,-0.1720479875802994,-0.0267986785620451,-0.3842841982841492,0.05778717994689941,0.104663074016571,-0.07856070995330811,2,0.6650981550481705,0.1163469418588957,0.4349098311343561,0.5957863036186899,-0.4398796260356903,-0.8937135934829712,-0.0882156640291214,-26.22459411621094,-40.53412628173828,17.7999267578125,2
1596230228.159154,75,0,102560.34421025,2.197065934134325,-1.365973262146377,1.116203180628771,0.3792973160743713,0.4739871323108673,-0.2126402109861374,-0.137444019317627,0.01857173442840576,-0.2028939723968506,2,0.6636187805060302,0.1222917459062551,0.4339278213292038,0.5969603274464295,-0.4299186766147614,-0.8984397649765015,-0.0893096849322319,-25.66685485839844,-40.29274749755859,17.77142333984375,2
1596230228.190233,76,0,102560.37430725,2.21464752750622,-1.356330644675378,1.122843198472648,0.05955470353364944,1.140410900115967,-0.2518711388111115,-0.4445933997631073,0.01753979921340942,0.06542563438415527,2,0.6603832215942457,0.1334329523933074,0.4403307675452176,0.5934631890641954,-0.4231989979743958,-0.9013355374336243,-0.09217929840087891,-25.98073577880859,-40.58489227294922,17.70272827148438,2
1596230228.219413,77,0,102560.40440525,2.206815736074766,-1.312525011429566,1.139163710863814,0.1539271622896194,1.166006326675415,-0.8581303954124451,-0.09346583485603333,0.2023776769638062,0.04718577861785889,2,0.6512270205071697,0.149925004398956,0.4473859650871076,0.5943666637937317,-0.4044788181781769,-0.9082839488983154,-0.1068517193198204,-26.3009033203125,-40.60022735595703,17.21475219726562,2
1596230228.250243,78,0,102560.43450325,2.212690064697724,-1.28218701970594,1.16989854281431,0.4407012462615967,1.195871353149414,-0.8313047289848328,0.3090976178646088,0.002906918525695801,0.05158442258834839,2,0.6440348141880016,0.1722890643950913,0.4494903712140482,0.5945536183853914,-0.3741047084331512,-0.9207109808921814,-0.1110712736845016,-25.76038360595703,-41.331298828125,16.46795654296875,2
1596230228.279505,79,0,102560.46460025,2.211703760621822,-1.253607580889008,1.178406200423339,-0.3695537447929382,0.5921100974082947,0.199905663728714,0.115307629108429,-0.2103602290153503,0.1368584036827087,2,0.6376859431145299,0.1836363233312288,0.4557179967501553,0.593258306751401,-0.363322377204895,-0.923997700214386,-0.1192686781287193,-25.58571624755859,-41.6077880859375,16.22817993164062,2
1596230228.31004,80,0,102560.49469825,2.185797866880186,-1.219378326025895,1.173629062470831,-0.1295778155326843,0.08365803956985474,-0.3142519891262054,0.2000206112861633,0.1922727823257446,-0.01472067832946777,2,0.6321747171448969,0.1837929097160778,0.4603708685378859,0.5955114882880045,-0.3631680607795715,-0.9221603870391846,-0.1331505924463272,-26.0201416015625,-41.58999633789062,15.360107421875,2
1596230228.33974,81,0,102560.52479525,2.174921029207837,-1.20528468537991,1.187297386860921,-0.07976329326629639,0.0248362235724926,-0.3057169020175934,0.2105615437030792,-0.07624471187591553,0.1341748237609863,2,0.6301928205097949,0.1897053826527468,0.4573057503527364,0.5981140818393158,-0.3494506776332855,-0.9273611307144165,-0.1337377578020096,-25.2412109375,-42.13833618164062,14.95339965820312,2
1596230228.388267,82,0,102560.55489325,2.142183852548101,-1.177886869659504,1.176669802338718,-0.7630612850189209,-0.1443545073270798,0.4107763171195984,-0.1426734924316406,-0.1502288579940796,0.1132653951644897,2,0.6267100426792742,0.1836344037792953,0.4594220757672038,0.6020335429752608,-0.354740709066391,-0.9233323335647583,-0.147025853395462,-25.13864135742188,-42.00244903564453,14.74859619140625,2
1596230228.399939,83,0,102560.58499025,2.108680779951192,-1.152012338386339,1.171045260955103,-0.1896153092384338,-0.1117514073848724,-0.5311011075973511,-0.1741949021816254,0.2698389291763306,-0.1829614639282227,2,0.6236011874256164,0.1788567076656382,0.4591473644583367,0.6068900672203913,-0.3555569648742676,-0.9211578965187073,-0.1582636684179306,-25.43040466308594,-42.27252197265625,13.8927001953125,2
1596230228.430261,84,0,102560.61508825,2.077292625803667,-1.122223230187447,1.188998924718064,-0.1179247125983238,0.08718516677618027,-0.5653248429298401,0.02637961506843567,-0.03681325912475586,-0.0716240406036377,2,0.6204801092209988,0.1849651648580994,0.453187679825804,0.6127098705468474,-0.3357279300689697,-0.9279964566230774,-0.1615846455097198,-24.733642578125,-42.62941741943359,13.79995727539062,2
1596230228.460174,85,0,102560.64518625,2.05579779504167,-1.102287009273675,1.190664730866502,-0.2342997044324875,-0.1304023265838623,0.09131947904825211,0.2944756746292114,-0.07770490646362305,-0.06584006547927856,2,0.6180440647289207,0.185062294709195,0.4522316630872828,0.6158410061131774,-0.3310602903366089,-0.9286158084869385,-0.1675469577312469,-24.20249176025391,-43.10651397705078,13.48025512695312,2
1596230228.507407,86,0,102560.67528325,2.051006859348523,-1.106951921798227,1.186894678525204,-0.04699056223034859,-0.5119231939315796,0.09180706739425659,0.3072701394557953,-0.006024599075317383,-0.1251165866851807,2,0.6193206154264463,0.1807181405328261,0.450504876260054,0.617112964970769,-0.3349668979644775,-0.9272103905677795,-0.1675658524036407,-24.37232971191406,-42.95551300048828,13.46975708007812,2
1596230228.520348,87,0,102560.70538125,2.051530158492737,-1.122029511379663,1.179968445285587,-0.08625459671020508,-0.4186287224292755,0.3050711452960968,-0.01838168501853943,-0.01709914207458496,-0.1013729572296143,2,0.6222702546786771,0.1736098687483114,0.4481762813321875,0.6178813268315113,-0.3432329595088959,-0.924593985080719,-0.1652786880731583,-24.39631652832031,-42.85323333740234,13.73922729492188,2
1596230228.56655,88,0,102560.73547825,2.05993610652569,-1.138160082118463,1.175594567721339,0.1711851954460144,-0.1746826469898224,-0.0104037094861269,-0.1598797142505646,0.1298544406890869,-0.1157110929489136,2,0.6249228217478574,0.1695995233591362,0.4471236002231616,0.6170802067332208,-0.3495224714279175,-0.9229189157485962,-0.1614149361848831,-24.39723205566406,-42.82840728759766,13.99343872070312,2
1596230228.580468,89,0,102560.76557625,2.07372481497352,-1.150864950159081,1.180593472503549,0.2590080797672272,0.1919991075992584,-0.05204099416732788,0.004567831754684448,0.02217423915863037,0.009900867938995361,2,0.6268301929741595,0.17188550724881,0.4458176413033241,0.6154559430869666,-0.3473280072212219,-0.9248319268226624,-0.1550785601139069,-24.42547607421875,-42.83864593505859,14.1776123046875,2
1596230228.628903,90,0,102560.79567425,2.095048035194228,-1.165855842416988,1.180399227155828,0.158625990152359,-0.06886199861764908,0.2546566724777222,0.08870136737823486,-0.07509887218475342,-0.008887767791748047,2,0.6283271674726159,0.173903362340082,0.4477179873850212,0.6119731306350118,-0.3497783839702606,-0.9247580170631409,-0.1499251872301102,-24.19932556152344,-42.59867858886719,14.44729614257812,2
1596230228.640789,91,0,102560.82577125,2.104367033770279,-1.182958850125402,1.17590063139135,-0.004121540114283562,-0.2711631655693054,0.06018651276826859,0.03469312191009521,0.02911365032196045,0.09224128723144531,2,0.6311757110034397,0.1699135251334866,0.4466000461686943,0.6109787709038113,-0.3561390936374664,-0.9230366945266724,-0.1454932242631912,-24.69416046142578,-42.59442138671875,14.80392456054688,2
1596230228.687781,92,0,102560.85586925,2.113508789245691,-1.196038588152149,1.174706129403712,0.1316138207912445,-0.07737532258033752,0.1589136868715286,-0.1326419711112976,-0.001351833343505859,0.04485642910003662,2,0.633278233584361,0.1683613186257082,0.4456318180048254,0.6099389944952009,-0.3590376079082489,-0.9225764870643616,-0.1412262916564941,-24.53876495361328,-42.563720703125,14.91171264648438,2
1596230228.70088,93,0,102560.88596625,2.11765681369732,-1.199370335273799,1.17231857331453,0.002834072336554527,0.1066718250513077,-0.07478389889001846,-0.1453467011451721,0.05023288726806641,0.04634487628936768,2,0.633594461079632,0.1677615109145936,0.4465913044226595,0.6090733906003478,-0.3615573942661285,-0.9216527342796326,-0.1408282667398453,-24.87141418457031,-42.277099609375,14.82723999023438,2
1596230228.749418,94,0,102560.91606425,2.121595522609878,-1.198922848118623,1.177802928996098,0.1674062609672546,0.0688907653093338,-0.07750960439443588,0.1260713040828705,0.03375959396362305,-0.02771151065826416,2,0.6333340966089203,0.1712081995616027,0.4462078105091998,0.6086661013486137,-0.3567799925804138,-0.9237668514251709,-0.1391513496637344,-24.73906707763672,-42.45623779296875,15.01107788085938,2
1596230228.761101,95,0,102560.94616225,2.127449129935815,-1.206870315158773,1.175114009462884,-0.1336870640516281,-0.1877910494804382,0.2210703343153,0.1274873912334442,-0.1014580726623535,0.0745842456817627,2,0.6345283217838877,0.169635629773455,0.446314299807942,0.6077838822189774,-0.3601945340633392,-0.9227337837219238,-0.1371951252222061,-24.80331420898438,-42.41593933105469,15.03204345703125,2
1596230228.806019,96,0,102560.97625925,2.1174052141453,-1.180215848339125,1.167233509326848,-0.4985025525093079,2.073399305343628,0.1818707436323166,0.142052173614502,0.07377922534942627,0.2337180376052856,2,0.6291280204913925,0.1715896302603116,0.4541571365840137,0.6070389407873904,-0.3631227910518646,-0.9196677207946777,-0.1495098620653152,-25.42966461181641,-42.32140350341797,14.39935302734375,2
1596230228.821407,97,0,102561.00635725,2.117307440817788,-1.170055476319404,1.156579585596648,0.2699690759181976,-0.6113098859786987,0.3181966245174408,-0.3832811117172241,-0.08612334728240967,-0.4435453414916992,2,0.626409278038367,0.1706133371958099,0.4606473930373248,0.6052326253818863,-0.370586097240448,-0.9154318571090698,-0.1570050120353699,-25.75974273681641,-42.24569702148438,13.947509765625,2
1596230228.869306,98,0,102561.03645425,2.126839447633282,-1.191976270322487,1.15397152363771,-0.0008489890024065971,-0.3446743190288544,-0.08023998886346817,-0.1958429515361786,0.1475813388824463,0.09015440940856934,2,0.6305418269314342,0.1659926537508212,0.457455349384802,0.6046471206331864,-0.3761554956436157,-0.9143790602684021,-0.1497268825769424,-25.92470550537109,-42.03521728515625,14.385009765625,2
1596230228.881558,99,0,102561.06655225,2.13463120277737,-1.208895749090417,1.158727442735535,0.189881831407547,-0.01183915045112371,-0.1384175270795822,0.0450056791305542,0.01181191205978394,-0.05168414115905762,2,0.6339013118089785,0.1651334831447723,0.4529797626918737,0.6047391903566017,-0.3745635449886322,-0.9162941575050354,-0.141800120472908,-25.74324798583984,-41.97286224365234,14.681884765625,2
1596230228.927356,100,0,102561.09665025,2.13225588330773,-1.206316860650244,1.161087418247499,-0.1600591987371445,-0.1159695684909821,0.03188243508338928,0.06796017289161682,-0.07497048377990723,0.03521287441253662,2,0.6335852800490519,0.1660497933906666,0.4523415373136756,0.6052968734076483,-0.3721750378608704,-0.9172368049621582,-0.1419943124055862,-25.45470428466797,-42.12680053710938,14.83840942382812,2
1596230228.941909,101,0,102561.12674725,2.128847325908271,-1.20331340800318,1.15666072387213,-0.06556800752878189,0.1260512173175812,0.1610515564680099,0.01275432109832764,0.000641167163848877,0.0519823431968689,2,0.6330482424685357,0.164211750632116,0.4536428632805762,0.6053863401455093,-0.3755325376987457,-0.9154645204544067,-0.1445688456296921,-25.33307647705078,-42.096923828125,14.77960205078125,2
1596230228.988513,102,0,102561.15684525,2.127854640053406,-1.195077613263273,1.151214116136702,-0.03255502134561539,0.395426481962204,0.1641947031021118,-0.00829043984413147,0.004524469375610352,0.05054068565368652,2,0.6310721534955774,0.1643344506783582,0.457642845558465,0.6044049346028081,-0.3789622187614441,-0.9132592082023621,-0.149484246969223,-25.93467712402344,-41.92899322509766,14.443359375,2
1596230229.001979,103,0,102561.18694225,2.135315175085386,-1.189447692543444,1.14939472229908,0.1292392611503601,0.341530829668045,0.01672414317727089,0.0407831072807312,0.04506182670593262,-0.04010218381881714,2,0.6290957073729955,0.1676957411655391,0.4622323246833651,0.6020449124841489,-0.3796560168266296,-0.9125165343284607,-0.1522334516048431,-26.16806030273438,-41.85575866699219,14.42098999023438,2
1596230229.048217,104,0,102561.21704025,2.146188229330311,-1.187853686008782,1.147387727317867,0.08601886779069901,0.4201571047306061,0.223895788192749,0.01270145177841187,0.009926140308380127,-0.01212334632873535,2,0.6277381843957504,0.1708319051650275,0.4666210713357692,0.5991878716666925,-0.3811109066009521,-0.9116937518119812,-0.1535224616527557,-26.38834381103516,-41.49110412597656,14.38027954101562,2
1596230229.062064,105,0,102561.2471385,2.158991618474617,-1.187606708777075,1.144419054432111,0.0657062903046608,0.301087498664856,0.005514764226973057,-0.01827239990234375,0.01628470420837402,-0.06904751062393188,2,0.6264828978638971,0.1737967596445295,0.4714418489412114,0.5958661139699566,-0.3835813105106354,-0.9104700088500977,-0.154627725481987,-26.811767578125,-41.4359130859375,13.98532104492188,2
1596230229.11053,106,0,102561.2772355,2.161575790188018,-1.188820574884642,1.145349455391793,0.08465833216905594,-0.1707562506198883,-0.02674560621380806,0.04781690239906311,-0.006656169891357422,-0.05659520626068115,2,0.6265722541775678,0.1745970308018243,0.4715439166588813,0.5954573053400147,-0.3829825222492218,-0.9108543992042542,-0.1538461744785309,-26.74649047851562,-41.59455871582031,14.09396362304688,2
1596230229.12229,107,0,102561.3073335,2.160123535519029,-1.190538688360192,1.147576112911002,-0.1271479576826096,-0.08581115305423737,-0.1077049449086189,0.02548372745513916,0.01014190912246704,0.06787484884262085,2,0.6271697026044332,0.1744726486765423,0.4698849103956215,0.5961759628724514,-0.3813623487949371,-0.9117711186408997,-0.152434915304184,-26.75661468505859,-41.68637084960938,14.29031372070312,2
1596230229.167839,108,0,102561.3374305,2.144198575145312,-1.182703852062363,1.148895557593864,-0.1859191656112671,-0.3143108189105988,-0.1227454841136932,-0.05572506785392761,0.005868375301361084,0.009508848190307617,2,0.626756679709157,0.1723214833937514,0.4671727910369884,0.5993589222311255,-0.3790425062179565,-0.9123122096061707,-0.1549627482891083,-26.42961883544922,-41.38948822021484,14.35064697265625,2
1596230229.182535,109,0,102561.3675285,2.136592580337574,-1.180245323808274,1.151183650204823,0.02148923277854919,0.07896947115659714,-0.1131038293242455,-0.0330454409122467,0.04079711437225342,-0.02285444736480713,2,0.6269162983760406,0.1715413709108478,0.4649505542952432,0.6011410916898017,-0.3767290413379669,-0.9132468104362488,-0.155099019408226,-26.35018157958984,-41.90048980712891,14.21884155273438,2
1596230229.22606,110,0,102561.3976265,2.136642105690198,-1.175320534219027,1.153523047237223,0.003292368724942207,0.1904743760824203,-0.02623135223984718,-0.05060926079750061,0.01556128263473511,0.01030921936035156,2,0.6258487037267492,0.1739221234004496,0.4657810699525061,0.6009264885895689,-0.3739881217479706,-0.9141973853111267,-0.1561289876699448,-26.17037963867188,-41.83914947509766,14.06927490234375,2
1596230229.242662,111,0,102561.4277235,2.135550042278058,-1.168137678494276,1.153560900416523,-0.04650482907891273,0.2469161152839661,-0.005441537592560053,0.0202488899230957,-0.008226633071899414,0.002927899360656738,2,0.62426929652518,0.1757526673460883,0.4676861509768802,0.6005569715713071,-0.3728252351284027,-0.914212703704834,-0.1587976962327957,-26.20992279052734,-41.81742095947266,13.95199584960938,2
1596230229.287658,112,0,102561.4578215,2.13427549121966,-1.15959298211991,1.153128919035822,0.006880967412143946,0.2094915360212326,-0.003001949284225702,-0.001937299966812134,0.0155828595161438,-0.01567727327346802,2,0.6223624073432219,0.1777564962191489,0.4701007365670429,0.6000608856274015,-0.3718166053295135,-0.9140375852584839,-0.1621353179216385,-26.29138946533203,-41.70698547363281,13.89654541015625,2
1596230229.302915,113,0,102561.4879185,2.133072841932127,-1.154984660210669,1.153274854204266,-0.04810880869626999,0.03359226882457733,-0.06166636198759079,0.005951404571533203,0.02751421928405762,0.02320384979248047,2,0.6213909333036663,0.1788204523875675,0.4711274564790607,0.5999462579677985,-0.3709433376789093,-0.9140967726707458,-0.1637931019067764,-26.38173675537109,-41.76500701904297,13.80636596679688,2
1596230229.348214,114,0,102561.5180165,2.127058008218039,-1.14875064155606,1.154719981065201,-0.06510030478239059,-0.0001262812875211239,-0.08285900205373764,0.01705408096313477,0.01051419973373413,0.00657808780670166,2,0.6205198112727088,0.1793729057329887,0.4708081749948329,0.6009327537950392,-0.3687095046043396,-0.9146817922592163,-0.1655610501766205,-26.49053192138672,-41.96781921386719,13.49649047851562,2
1596230229.363367,115,0,102561.5481145,2.121721299990415,-1.145432037542404,1.156377375622772,-0.02108063921332359,-0.1045640707015991,-0.0726577416062355,0.001651942729949951,0.01505196094512939,-0.0235019326210022,2,0.620287530464545,0.1793443432800356,0.4697172088515132,0.6020338582183069,-0.3667767345905304,-0.9153504371643066,-0.1661579757928848,-26.50100708007812,-42.10011291503906,13.59835815429688,2
1596230229.408277,116,0,102561.5782115,2.121462512414906,-1.148582639574309,1.156320428214867,0.005518760532140732,-0.1359276473522186,0.01379167754203081,0.02186670899391174,0.03188949823379517,-0.009286701679229736,2,0.6210474001032706,0.1782938545149556,0.4686791714211529,0.6023713126287511,-0.3673457503318787,-0.9153274893760681,-0.1650228500366211,-26.32633972167969,-41.91451263427734,13.79736328125,2
1596230229.423274,117,0,102561.6083095,2.12000864720058,-1.151550935901561,1.157347134236702,-0.02623210661113262,-0.1185858994722366,-0.07956382632255554,0.002387493848800659,-0.02707922458648682,-0.01018524169921875,2,0.6219140332266901,0.1773367569973656,0.4669991036039352,0.6030642794473113,-0.3669756650924683,-0.9157404899597168,-0.1635492146015167,-26.33323669433594,-41.932373046875,13.83343505859375,2
1596230229.467642,118,0,102561.6384065,2.119630049712224,-1.155719383374633,1.15902417508932,0.1192111223936081,-0.244997039437294,-0.02568192407488823,-0.01403552293777466,0.0441131591796875,-0.04031884670257568,2,0.6229881598044562,0.1765968196718999,0.4650649800295732,0.6036671662230788,-0.3662485480308533,-0.9164130091667175,-0.161398634314537,-26.15739440917969,-42.03644561767578,13.89999389648438,2
1596230229.483442,119,0,102561.6685045,2.125643510243656,-1.168325042305323,1.160933271692039,0.06822552531957626,-0.1700064092874527,-0.04253741353750229,-0.02532333135604858,0.04265856742858887,-0.0001590251922607422,2,0.6254565428359699,0.1753919764986811,0.4623499788047822,0.6035514834278983,-0.3666434586048126,-0.9171754121780396,-0.1560835391283035,-26.03822326660156,-42.09171295166016,14.18984985351562,2
1596230229.527623,120,0,102561.6986025,2.125746335360544,-1.171968320859696,1.163228238061608,-0.01914267241954803,-0.1114354953169823,-0.09250444173812866,0.0337236225605011,-0.01621663570404053,0.02471143007278442,2,0.6263730992342355,0.1751920269528899,0.4605245024110486,0.6040545572687125,-0.3652692437171936,-0.9180874824523926,-0.1539289951324463,-25.87574005126953,-42.00135040283203,14.14886474609375,2
