loggingTime,loggingSample,identifierForVendor,motionTimestamp_sinceReboot,motionYaw,motionRoll,motionPitch,motionRotationRateX,motionRotationRateY,motionRotationRateZ,motionUserAccelerationX,motionUserAccelerationY,motionUserAccelerationZ,motionAttitudeReferenceFrame,motionQuaternionX,motionQuaternionY,motionQuaternionZ,motionQuaternionW,motionGravityX,motionGravityY,motionGravityZ,motionMagneticFieldX,motionMagneticFieldY,motionMagneticFieldZ,motionMagneticFieldCalibrationAccuracy
1596230207.701834,1,0,102539.877785875,2.193456321786212,-1.129244854355406,1.190702776220491,0.09231488406658173,0.3334411680698395,0.03210658580064774,-0.09572884440422058,0.03522700071334839,-0.03669661283493042,2,0.6104510230651645,0.2192622361234463,0.4853193805696717,0.5862923309229769,-0.3354238867759705,-0.9286299347877502,-0.1585472375154495,-25.57148742675781,-42.42887878417969,13.6934814453125,2
1596230207.723073,2,0,102539.907883875,2.199187393721122,-1.126050323185475,1.192999007944335,0.08615993708372116,0.2409756481647491,-0.07478327304124832,-0.03870171308517456,0.0442512035369873,-0.009395956993103027,2,0.6090998663214195,0.2228165852532729,0.4872551879031534,0.5847500276631257,-0.3329901397228241,-0.9294794201850891,-0.158700242638588,-25.46031188964844,-42.35366821289062,13.462158203125,2
1596230207.753075,3,0,102539.937981875,2.193307840956779,-1.119326305279076,1.193306607125336,-0.197162851691246,-0.1983873248100281,0.02259600721299648,0.03177136182785034,0.01084262132644653,-0.01128506660461426,2,0.6081248759055606,0.2231114266401704,0.4874852255609863,0.5854601603190356,-0.3316580951213837,-0.9295928478240967,-0.1608108580112457,-25.54470062255859,-42.41478729248047,13.27658081054688,2
1596230207.783175,4,0,102539.968079875,2.189020051989294,-1.120405346701354,1.194435647271577,-0.02891736477613449,-0.1387014985084534,-0.2561046779155731,0.04960471391677856,0.02098363637924194,0.02309095859527588,2,0.6088955482703,0.2219195422025937,0.4855478255224797,0.5867207280930478,-0.3308862149715424,-0.9300083518028259,-0.1599958539009094,-25.69456481933594,-42.58863830566406,13.54345703125,2
1596230207.813167,5,0,102539.998177875,2.174816661277784,-1.111398801316105,1.202215400575606,0.01391809619963169,-0.1126096844673157,-0.2669563591480255,-0.004213333129882812,0.01587283611297607,0.01601243019104004,2,0.6085259526769984,0.2231992765323284,0.4816754491250158,0.5898025704339989,-0.32293701171875,-0.932839572429657,-0.1597564965486526,-24.99589538574219,-42.62416076660156,13.30117797851562,2
1596230207.84335,6,0,102540.028275875,2.166103612947641,-1.107610517851257,1.204753590730558,-0.1086405962705612,-0.1882808804512024,-0.03821178525686264,0.0330774188041687,-0.02078557014465332,0.06158852577209473,2,0.6086671824148164,0.2226299023011249,0.4794574508115446,0.5916763211817784,-0.320210337638855,-0.9337510466575623,-0.1599203795194626,-24.62245178222656,-42.50028228759766,13.44580078125,2
1596230207.873417,7,0,102540.058372875,2.155379452603352,-1.105137421511497,1.206237760535683,-0.102979876101017,-0.2996967732906342,-0.1492781043052673,0.01668009161949158,0.0383758544921875,0.01387786865234375,2,0.6093145829496898,0.2206604992317935,0.4765643997610796,0.5940801214448184,-0.3185752332210541,-0.9342812299728394,-0.160089373588562,-24.40233612060547,-42.86142730712891,13.43600463867188,2
1596230207.903577,8,0,102540.088470875,2.146780540203999,-1.106704284392602,1.208443979048379,-0.02366122230887413,-0.3534533381462097,-0.05561516433954239,0.05719450116157532,-0.02844059467315674,-0.08274829387664795,2,0.6107082704918941,0.2184076834304748,0.472831613982569,0.5964594584754168,-0.316981703042984,-0.9350655674934387,-0.1586669832468033,-24.54458618164062,-42.79293823242188,13.5921630859375,2
1596230207.934016,9,0,102540.118568875,2.144817375738387,-1.115258320454888,1.208869808446466,0.04570572823286057,-0.3118634819984436,-0.001499781385064125,0.05287060141563416,0.02038782835006714,-0.06804084777832031,2,0.6129514040815485,0.2154142794529045,0.4694941693069369,0.5978817597027832,-0.3179696798324585,-0.9352164268493652,-0.1557745337486267,-24.2069091796875,-43.14308929443359,13.82070922851562,2
1596230207.963785,10,0,102540.148666875,2.152737603055886,-1.132625813063427,1.210535242518853,0.1601812541484833,-0.3411201536655426,-0.03474481403827667,-0.06369435787200928,0.05749821662902832,-0.1030483245849609,2,0.6162185651219857,0.2132854459214819,0.4659991162784053,0.5980208984317934,-0.3192163109779358,-0.9358048439025879,-0.1495679914951324,-23.96513366699219,-42.90988922119141,14.0645751953125,2
1596230207.993755,11,0,102540.178764875,2.167287514185436,-1.154864742223836,1.213440924280504,0.1514284610748291,-0.2760865986347198,-0.02042675577104092,0.02124154567718506,0.009444952011108398,-0.2126368284225464,2,0.6199116295236169,0.2122333031818047,0.4625558285136573,0.5972509913623818,-0.3199743628501892,-0.936825156211853,-0.1413331925868988,-23.84764099121094,-42.90296936035156,14.59432983398438,2
1596230208.024,12,0,102540.208861875,2.182517550107908,-1.181201591262058,1.218041874657251,0.3267571628093719,-0.4692643284797668,-0.05520957335829735,0.08805614709854126,-0.007305741310119629,-0.1124442219734192,2,0.6244491226387354,0.2108400666910229,0.457455069149188,0.5969461028356029,-0.319594532251358,-0.9384246468544006,-0.1312195211648941,-23.85619354248047,-42.85188293457031,14.8468017578125,2
1596230208.054008,13,0,102540.238959875,2.208351156178039,-1.219748151065119,1.220573762344118,0.2826807200908661,-0.5205463171005249,0.01131234131753445,-0.04524698853492737,0.08247530460357666,-0.08029186725616455,2,0.630534193071326,0.2084045608929595,0.4522618372607629,0.5953598724415747,-0.3221816718578339,-0.9392963647842407,-0.1179883405566216,-23.30281066894531,-42.66298675537109,15.50390625,2
1596230208.084197,14,0,102540.269057875,2.2290001959746,-1.258713775355031,1.227753613238648,0.3435513973236084,-0.7481265068054199,-0.2805599272251129,-0.01278850436210632,0.09587264060974121,0.006434082984924316,2,0.6371164181034492,0.2060226427694946,0.4437974602062004,0.5955512403737477,-0.3201072216033936,-0.9417356252670288,-0.1032746806740761,-22.88294219970703,-42.67109680175781,16.69235229492188,2
1596230208.114198,15,0,102540.299155875,2.25967191079339,-1.309007863437749,1.239879435791581,0.4812038838863373,-0.5772936940193176,-0.2769498229026794,-0.06233811378479004,0.02255892753601074,0.00204932689666748,2,0.6448125669073563,0.2053581603529155,0.4329948867790477,0.5954495976013402,-0.3138402104377747,-0.9457448124885559,-0.08408956229686737,-22.17180633544922,-42.5543212890625,17.18051147460938,2
1596230208.144397,16,0,102540.329253875,2.294963372574833,-1.358728480656242,1.249539440838465,0.4129739999771118,-0.6314474940299988,-0.233485534787178,-0.2331051826477051,0.0335690975189209,0.01900273561477661,2,0.6515545923461168,0.2055378679937797,0.4243509190399893,0.5942701784675135,-0.3086855411529541,-0.9488393068313599,-0.06646159291267395,-21.46033477783203,-42.37236785888672,18.39041137695312,2
1596230208.174354,17,0,102540.359350875,2.330575642389694,-1.401189208474096,1.264634375855103,0.6125814318656921,0.2003012895584106,-0.5958796143531799,-0.0733318030834198,0.1113799810409546,-0.0214684009552002,2,0.6560895915066128,0.2100211425042245,0.416345318187709,0.5933753210505687,-0.297076940536499,-0.9534974098205566,-0.05087513476610184,-21.01193237304688,-42.50617980957031,18.72946166992188,2
1596230208.204563,18,0,102540.389448875,2.406784241986676,-1.460345854895888,1.284131225816689,0.9792581796646118,0.3233781158924103,-0.4121763706207275,0.1375331580638885,0.02404296398162842,-0.244416356086731,2,0.6587885687659409,0.2245309149991414,0.4133933102521042,0.5871026359827969,-0.2810322046279907,-0.959192156791687,-0.03116698004305363,-20.31366729736328,-42.44624328613281,20.04879760742188,2
1596230208.234559,19,0,102540.419546875,2.499579946597716,-1.549681247337767,1.294833251355682,0.6327514052391052,-0.2954008281230927,-0.1422888934612274,0.381924957036972,-0.0918114185333252,0.2389496564865112,2,0.6655040660671401,0.2328688522071982,0.4076950442001829,0.5802250628824286,-0.2724127173423767,-0.9621632099151611,-0.00575287127867341,-20.07051849365234,-42.12653350830078,20.51229858398438,2
1596230208.264625,20,0,102540.449644875,2.534003922418224,-1.592859867783113,1.289746453996493,0.1735905110836029,-0.4813854396343231,0.4740268588066101,0.2983894646167755,-0.09658545255661011,0.2982360124588013,2,0.6708787136426779,0.2301767188749306,0.4047017270374725,0.5771974303093133,-0.2772967219352722,-0.9607647657394409,0.006119140889495611,-19.71154022216797,-41.66059875488281,21.52032470703125,2
1596230208.294806,21,0,102540.479742875,2.549880793539595,-1.626215324495808,1.27630636045251,0.1404401212930679,-0.574501633644104,0.2020557671785355,-0.2450077831745148,0.04273676872253418,-0.004322290420532227,2,0.6774781776629206,0.2214992763008032,0.4018405691847358,0.5748786751603185,-0.2898060083389282,-0.956950306892395,0.01607722043991089,-19.94809722900391,-41.43658447265625,21.8638916015625,2
1596230208.32501,22,0,102540.509839875,2.575689451793097,-1.660537729159456,1.27883288972778,0.302786260843277,0.08206470310688019,-0.2216053009033203,-0.2285281419754028,0.07240712642669678,-0.03039228916168213,2,0.6811438972841779,0.2212259842016596,0.3968924613305876,0.5740892137315439,-0.2866748571395874,-0.9576805830001831,0.02579589001834393,-19.617431640625,-41.26507568359375,22.51821899414062,2
1596230208.354987,23,0,102540.539937875,2.610180256367888,-1.685225034068346,1.279205989038851,0.4500202536582947,0.2430277317762375,0.1003089398145676,-0.02808365225791931,-0.03605055809020996,-0.1316618919372559,2,0.6821425288187869,0.2260386169792958,0.3982424219685144,0.5700799597410239,-0.2855960130691528,-0.9577879309654236,0.03282377123832703,-19.62899780273438,-41.19469451904297,22.83364868164062,2
1596230208.385166,24,0,102540.570035875,2.645166359227864,-1.713862360939517,1.274522924073973,0.1497563421726227,0.01456092298030853,0.1242189407348633,0.1641230881214142,-0.004375457763671875,0.1022137403488159,2,0.6845786434359316,0.2283977786159392,0.3996373205504933,0.5652225588983421,-0.2889752089977264,-0.9564311504364014,0.04162693023681641,-19.96955871582031,-40.64752960205078,23.23583984375,2
1596230208.415192,25,0,102540.600133875,2.648366712674888,-1.721490340644261,1.267753670823939,-0.02395753748714924,-0.1472044587135315,0.3343424499034882,0.1386120319366455,-0.0711592435836792,0.07787871360778809,2,0.6867791313210433,0.2252441414175737,0.3997033452719886,0.5637702087094107,-0.2950439453125,-0.9544329047203064,0.04480099678039551,-19.93205261230469,-40.85343170166016,23.28176879882812,2
1596230208.445207,26,0,102540.630231875,2.628562093134754,-1.705682279842753,1.253684869595383,-0.1587807536125183,-0.1143317595124245,0.6365827322006226,0.1373676955699921,-0.06861329078674316,0.01184630393981934,2,0.6879116038628661,0.2185045586611577,0.4032588221286124,0.5625085472325695,-0.3089914917945862,-0.950140118598938,0.04193323478102684,-20.57684326171875,-40.48609161376953,23.24642944335938,2
1596230208.475418,27,0,102540.660328875,2.605646175780043,-1.686046739465783,1.234080095730723,-0.2604347467422485,-0.03510079905390739,0.6873059868812561,0.1338703632354736,0.01985478401184082,0.1923834085464478,2,0.689149979790026,0.2099261353796382,0.4087844122072292,0.560266730117692,-0.3281982839107513,-0.9438446760177612,0.03799335286021233,-20.72159576416016,-40.37419128417969,23.197998046875,2
1596230208.505417,28,0,102540.690426875,2.561022882850259,-1.642490229957003,1.212296595462121,-0.4262178838253021,0.004181293770670891,0.8786051869392395,0.2169103026390076,-0.004282772541046143,0.0007357597351074219,2,0.6875170732694744,0.1997176246631293,0.4171455855834107,0.5598418244143105,-0.3499688804149628,-0.9364242553710938,0.02513371035456657,-22.09197998046875,-39.96266937255859,22.76016235351562,2
1596230208.535595,29,0,102540.720524875,2.537407279365363,-1.628209147799611,1.184000631900162,-0.2651444971561432,-0.4904834926128387,1.041398167610168,0.5106276273727417,-0.05606019496917725,0.05654776096343994,2,0.6900299759878017,0.186229445325284,0.4231777638664858,0.5568643794014405,-0.3766016066074371,-0.9261225461959839,0.02164554782211781,-23.43879699707031,-39.49111938476562,22.4205322265625,2
1596230208.565757,30,0,102540.750622875,2.487466245058672,-1.5984335141247,1.144837433423368,-0.8594591617584229,-0.5128530263900757,1.694113492965698,0.3707070648670197,-0.1252927184104919,0.2705576419830322,2,0.6919418425776649,0.1640899886019593,0.4303113338160619,0.5559884743507482,-0.4130365550518036,-0.9106429219245911,0.01141807530075312,-24.03296661376953,-39.09087371826172,22.375,2
1596230208.595757,31,0,102540.780720875,2.42433197820753,-1.550674109243652,1.084937426737599,-0.8272982239723206,-0.2724261581897736,2.046756267547607,-0.2497901022434235,0.07066833972930908,0.2576565742492676,2,0.6907402186533302,0.1348334233821169,0.4459076176597053,0.5530499561338509,-0.4668734073638916,-0.8842741847038269,-0.009395796805620193,-26.18235015869141,-38.19264984130859,21.42791748046875,2
1596230208.625941,32,0,102540.810817875,2.376596371628774,-1.521254160500377,1.043456421536104,-1.037443041801453,-0.4880612194538116,0.6075735688209534,-0.2617471218109131,0.222084105014801,0.3385016918182373,2,0.6892205766088815,0.1118676902268468,0.4544102436093487,0.5531473957672177,-0.5026191473007202,-0.8641487956047058,-0.02492123283445835,-27.61966705322266,-37.71468353271484,21.12344360351562,2
1596230208.656267,33,0,102540.840915875,2.306403580618904,-1.480913869407594,1.023953217099683,-1.158937573432922,-0.8251137733459473,0.8045621514320374,-0.124439001083374,0.06577587127685547,0.0487220287322998,2,0.684246252870177,0.09202927684112444,0.4541745227415501,0.5630835597923939,-0.5178940892219543,-0.8541703224182129,-0.04667535424232483,-28.00409698486328,-38.13189697265625,19.8668212890625,2
1596230208.686081,34,0,102540.871013875,2.25705709506073,-1.46256058289321,0.9946338579482832,-0.8725010752677917,-0.6940435767173767,0.7599976658821106,-0.02531641721725464,0.09917843341827393,-0.09906113147735596,2,0.6824306983591865,0.06972749364847114,0.4548597817956608,0.5679163329831465,-0.5416218042373657,-0.8385595679283142,-0.05885283648967743,-28.38507080078125,-37.93186187744141,19.64923095703125,2
1596230208.716173,35,0,102540.901111875,2.214861476418948,-1.444912062292461,0.9753826501589327,-0.825509250164032,-0.5325227379798889,0.4146273732185364,0.01515781879425049,0.02325135469436646,0.002517938613891602,2,0.679664263220061,0.05337108051146822,0.4543549317083203,0.5733843704211605,-0.5564133524894714,-0.8279165625572205,-0.07041603326797485,-28.55955505371094,-38.10128021240234,18.9632568359375,2
1596230208.746266,36,0,102540.931209875,2.181113502406419,-1.433063440319686,0.9594568095566068,-0.5122069716453552,-0.4793375432491302,0.450680285692215,-0.1609926819801331,0.1554651260375977,-0.1127141118049622,2,0.6775233013149707,0.03949830220404876,0.4532545072236063,0.577894773776781,-0.5685292482376099,-0.8188799023628235,-0.07880412042140961,-28.91988372802734,-38.23904418945312,18.71112060546875,2
1596230208.776406,37,0,102540.961306875,2.162639100021331,-1.431082575040597,0.9506603315564068,-0.1975222527980804,-0.3476738333702087,-0.03871865943074226,-0.2010027766227722,0.202042818069458,-0.2828460335731506,2,0.6771995319896302,0.03058924806849705,0.4511196433486865,0.5804792920142164,-0.5754831433296204,-0.8137994408607483,-0.08093018084764481,-29.10641479492188,-38.15406799316406,18.6348876953125,2
1596230208.806797,38,0,102540.991404875,2.160740094115805,-1.436030940633851,0.9535318876388831,-0.02008962072432041,-0.255912721157074,-0.01335406117141247,-0.116802453994751,0.02907878160476685,-0.2867385745048523,2,0.6784118033577552,0.02956057379564264,0.4480587164868608,0.5814868764507697,-0.5735584497451782,-0.8154648542404175,-0.07776719331741333,-28.93978881835938,-38.22283172607422,18.5792236328125,2
1596230208.836482,39,0,102541.021502875,2.160556818573151,-1.440130914727994,0.951558667145131,0.1196102276444435,0.1848120242357254,0.08450055867433548,-0.235137939453125,0.05747580528259277,-0.2431491017341614,2,0.6792840797199768,0.02758423126980208,0.4471861432510879,0.58123737788969,-0.5754668712615967,-0.8143211603164673,-0.0756244957447052,-28.77037048339844,-38.28146362304688,18.62454223632812,2
1596230208.866743,40,0,102541.051600875,2.176195173393878,-1.440206527111337,0.9524437989090576,0.4203190803527832,0.6356777548789978,-0.1282934099435806,-0.294710099697113,0.1631292700767517,-0.2512534856796265,2,0.6790835188725256,0.03319700681743903,0.451435991975675,0.5778832218242721,-0.5747575163841248,-0.8148345947265625,-0.07548706978559494,-28.79417419433594,-37.95845031738281,18.8204345703125,2
1596230208.896789,41,0,102541.081698875,2.197068122484277,-1.433364726768453,0.9610568236968914,0.4204064309597015,0.8934977054595947,-0.2442763894796371,-0.1742630004882812,0.04488325119018555,-0.03648543357849121,2,0.67728282329543,0.04540208417659802,0.4572880267120113,0.5745558092570754,-0.5672546029090881,-0.8197972178459167,-0.07845325767993927,-29.33629608154297,-37.95654296875,18.71005249023438,2
1596230208.929792,42,0,102541.111795875,2.213908540083455,-1.422835944471532,0.9675743198032659,0.2332264482975006,0.6717472672462463,-0.1109622046351433,0.06454026699066162,-0.0578579306602478,0.2155437469482422,2,0.6745304848621947,0.05650409669726431,0.4637995543578655,0.5715819518862503,-0.5611004233360291,-0.823512077331543,-0.08363182097673416,-29.52835083007812,-37.93341827392578,18.52883911132812,2
1596230208.956964,43,0,102541.141893875,2.215232354075638,-1.411007260548202,0.9692125017602881,-0.1921040713787079,0.09620968997478485,0.04061374440789223,0.3163280487060547,-0.1275960206985474,0.3872541189193726,2,0.6717612408745681,0.06093240610091816,0.4676892092847805,0.5712188950969026,-0.5587394833564758,-0.8244403004646301,-0.09004815667867661,-29.65221405029297,-37.94525909423828,18.08810424804688,2
1596230208.98707,44,0,102541.171991875,2.198249974236367,-1.402732815345744,0.9630925847436463,-0.4320626556873322,-0.3651243448257446,0.2538889646530151,0.4226049184799194,-0.05668973922729492,0.2834001779556274,2,0.6702102302228373,0.05534449090745996,0.467361141266513,0.5738718566759047,-0.5629391670227051,-0.8209612965583801,-0.09551046788692474,-29.80301666259766,-38.05405426025391,17.75018310546875,2
1596230209.017123,45,0,102541.202089875,2.175154702429292,-1.405555187878715,0.9500320447967981,-0.6448507308959961,-1.123435139656067,0.3719741702079773,-0.03088545799255371,-0.08014237880706787,0.01020777225494385,2,0.6711188802833703,0.04196434672800825,0.4635279784328641,0.5770444472899677,-0.5737341642379761,-0.8134341239929199,-0.09567688405513763,-29.93461608886719,-38.09397125244141,18.08883666992188,2
1596230209.047347,46,0,102541.232187875,2.137744620579452,-1.40908026434942,0.9407726949083115,-0.7681159973144531,-0.9603228569030762,0.008862128481268883,-0.3151520490646362,0.1308708190917969,-0.03044342994689941,2,0.6722690116780192,0.02496216532274076,0.45416150274017,0.5840964426539044,-0.5814768075942993,-0.8080135583877563,-0.09486253559589386,-29.37715911865234,-38.24011993408203,17.69241333007812,2
1596230209.077389,47,0,102541.2622849167,2.110389802385747,-1.401839706363176,0.9408076355062097,-0.3154367208480835,0.05640034750103951,-0.2114710509777069,-0.2936444282531738,0.1967182159423828,-0.1694941520690918,2,0.6709294432234358,0.01791486051444025,0.4485520158372179,0.5901981833806185,-0.5807468891143799,-0.8080341815948486,-0.09906548261642456,-29.29429626464844,-38.53275299072266,17.54058837890625,2
1596230209.107517,48,0,102541.2923829167,2.098016184368504,-1.383040055678721,0.9487494905833971,-0.0711795836687088,0.3937075436115265,-0.2811388075351715,0.05035734176635742,0.02681279182434082,-0.1522024869918823,2,0.667174632261756,0.02227223837758879,0.4488493546943594,0.5940676329863035,-0.5724593997001648,-0.8126874566078186,-0.1087639182806015,-28.96044921875,-38.83715057373047,17.28518676757812,2
1596230209.137536,49,0,102541.3224809167,2.09655499940353,-1.36978971173978,0.9511437750000712,0.02294399775564671,0.3495655059814453,0.09586086124181747,0.2397826313972473,-0.03836441040039062,-0.1029725074768066,2,0.664316682951276,0.02660973272533346,0.4521218814035842,0.5946099372363889,-0.5690593719482422,-0.8140802979469299,-0.1159505322575569,-28.9859619140625,-38.82738494873047,17.03701782226562,2
1596230209.169908,50,0,102541.3525789167,2.10028948145048,-1.365597053155963,0.9490560489401089,0.09655991196632385,0.1594083160161972,0.003827954642474651,0.07684683799743652,0.02252340316772461,-0.076446533203125,2,0.6632173308056116,0.02832010038645166,0.4552357208326688,0.5933812212994738,-0.5702311992645264,-0.8128660917282104,-0.1186814904212952,-29.39061737060547,-38.78266143798828,16.68865966796875,2
1596230209.197686,51,0,102541.3826759167,2.107581893453239,-1.367838217815083,0.9499202020497878,0.1849826723337173,0.08437426388263702,0.005839811637997627,-0.08727890253067017,0.0240405797958374,-0.06935644149780273,2,0.6636605514632931,0.03039571359810889,0.4563997540888516,0.5918868395342622,-0.5698073506355286,-0.81336909532547,-0.1172615438699722,-29.46002960205078,-38.87987518310547,16.71475219726562,2
1596230209.23089,52,0,102541.4127739167,2.115881431814851,-1.367976590771107,0.9534103202778172,0.1566794216632843,0.3877751529216766,-0.1300004720687866,-0.08700203895568848,-0.01696711778640747,0.07329428195953369,2,0.6637102269244818,0.03440407453456656,0.4577853483524477,0.5905401952283559,-0.5670396685600281,-0.8153945207595825,-0.1166101917624474,-29.58252716064453,-38.72953033447266,16.93777465820312,2
1596230209.257887,53,0,102541.4428719167,2.12146567701065,-1.36001052712612,0.956160403317648,0.1342435479164124,0.3720023036003113,-0.07017069309949875,-0.07213538885116577,0.02324795722961426,-0.02412378787994385,2,0.6618933425455754,0.03962659055329593,0.4612682667171064,0.5895409593742789,-0.5638977885246277,-0.8169834613800049,-0.1206538751721382,-29.44007110595703,-38.72521209716797,16.66140747070312,2
1596230209.290185,54,0,102541.4729699167,2.131469224571273,-1.359189810542117,0.9641115016839928,0.3713160455226898,0.2728517055511475,-0.3598337471485138,-0.04855501651763916,0.06879305839538574,-0.09839051961898804,2,0.6618135758922823,0.04613636791838738,0.4621605456713895,0.5884571399663874,-0.5574296712875366,-0.8215426802635193,-0.1197484508156776,-29.27375793457031,-38.76458740234375,16.40972900390625,2
1596230209.31811,55,0,102541.5030679167,2.148571222356964,-1.365849129321047,0.9786145683570978,0.3643997311592102,0.180079847574234,-0.4077666699886322,-0.08771812915802002,0.05462539196014404,-0.04442989826202393,2,0.6634382283442182,0.05523897035234948,0.4607340383520551,0.586960380029619,-0.5464909672737122,-0.8297248482704163,-0.1135967448353767,-29.21281433105469,-38.91448211669922,16.60342407226562,2
1596230209.349957,56,0,102541.5331649167,2.163249852376555,-1.371937343574816,0.993294606522259,0.4193004071712494,0.2465407103300095,-0.4660331904888153,-0.1848823428153992,0.0650520920753479,-0.1039661169052124,2,0.6648363106051172,0.06378047627370498,0.4587117682742055,0.5860957296533662,-0.5351735353469849,-0.8378291726112366,-0.1078494638204575,-28.81492614746094,-38.85832214355469,16.9254150390625,2
1596230209.378402,57,0,102541.5632629167,2.182775269538703,-1.379325685432008,1.012221572308637,0.4892826080322266,0.3661389052867889,-0.6151914000511169,-0.09942436218261719,0.1016021370887756,-0.0542759895324707,2,0.6662782185285276,0.07513422975247069,0.4564060629033959,0.5849117255534823,-0.5202930569648743,-0.848011314868927,-0.1008563637733459,-28.42157745361328,-38.96908569335938,17.21963500976562,2
1596230209.410011,58,0,102541.5933609167,2.204656337340995,-1.386185154656115,1.032574566191849,0.4744013249874115,0.397357702255249,-0.5363301038742065,0.06975114345550537,0.04012173414230347,0.05262649059295654,2,0.6672442883583705,0.08795807863876182,0.4545151386414161,0.5834932112825763,-0.5038993954658508,-0.8586215972900391,-0.09409686923027039,-27.76390075683594,-39.24561309814453,17.66143798828125,2
1596230209.43843,59,0,102541.6234589167,2.224623707758033,-1.391377487158903,1.048222308704509,0.3742432594299316,0.3657819330692291,-0.3661715090274811,0.04145848751068115,-0.03466486930847168,0.09584152698516846,2,0.667597139196033,0.09888798497731022,0.453983788714034,0.5817507280729521,-0.4911002516746521,-0.86653733253479,-0.08907045423984528,-27.59154510498047,-39.45454406738281,17.5526123046875,2
1596230209.470007,60,0,102541.6535559167,2.239040319795152,-1.392463786226482,1.061040340268885,0.2602358162403107,0.4457167088985443,-0.4210479259490967,0.03881359100341797,-0.02483510971069336,0.1231581568717957,2,0.6671076688742014,0.1081094050334013,0.4540273896676646,0.5806366630917738,-0.4802257418632507,-0.8728635907173157,-0.08655942976474762,-27.30260467529297,-39.78777313232422,18.06979370117188,2
1596230209.498711,61,0,102541.6836539167,2.246313834634179,-1.386903510036481,1.073434612553535,0.08031049370765686,0.2973854541778564,-0.2966643869876862,0.05959030985832214,-0.009999215602874756,0.1406052112579346,2,0.665399111038496,0.1167150913203606,0.4543263311124619,0.5806972661189956,-0.4690644145011902,-0.8788443803787231,-0.0872432217001915,-26.85247802734375,-39.92385101318359,17.99200439453125,2
1596230209.530395,62,0,102541.7137519167,2.242105032812908,-1.378497859767445,1.081608411544498,-0.02729057893157005,0.08191492408514023,-0.3362201750278473,0.001328885555267334,0.0111050009727478,0.1031035184860229,2,0.6637090604455711,0.1207758980517415,0.4534696092015605,0.5824678335967552,-0.4612476229667664,-0.8827147483825684,-0.08980692923069,-26.76921081542969,-40.25022888183594,17.83914184570312,2
1596230209.558906,63,0,102541.7438499167,2.241611560720992,-1.372401548696789,1.093856432431616,0.09495917707681656,0.4432647526264191,-0.3860472142696381,0.037152498960495,0.02060985565185547,0.02257764339447021,2,0.6623094660530321,0.1269113139979764,0.4516952514240534,0.5841328144205019,-0.4500579535961151,-0.8884038329124451,-0.09047938138246536,-26.23615264892578,-40.23895263671875,17.77713012695312,2
1596230209.59004,64,0,102541.7739479167,2.243720402120174,-1.354527469551137,1.102348938335502,0.1107494384050369,0.8455255031585693,-0.2308671474456787,-0.1052080988883972,-0.007087469100952148,-0.005138754844665527,2,0.658080546230348,0.1359662901607157,0.4556697235292209,0.5837879044484648,-0.4409838020801544,-0.8922703862190247,-0.09688632190227509,-26.39955139160156,-40.52644348144531,17.55010986328125,2
1596230209.619079,65,0,102541.8040449167,2.249857531207351,-1.331905357199283,1.112381201466026,0.1673634797334671,0.9791513085365295,-0.3215799927711487,0.0597052276134491,5.191564559936523e-05,0.06509578227996826,2,0.6524205231003111,0.1482931922615022,0.4618603743372015,0.5822728198270908,-0.4299601912498474,-0.8967549800872803,-0.1047131791710854,-26.38468933105469,-40.66368103027344,16.8668212890625,2
1596230209.650048,66,0,102541.8341429167,2.248454315548943,-1.306002934241967,1.118214373712475,-0.1331908255815506,0.6130566596984863,-0.0328294076025486,0.1958355605602264,-0.07379400730133057,0.1462313532829285,2,0.64649658687976,0.1575459608809926,0.4681087364213177,0.5814599608866899,-0.4220480620861053,-0.8993210196495056,-0.1144428700208664,-26.56392669677734,-40.80944061279297,16.59197998046875,2
1596230209.679321,67,0,102541.8642409167,2.237572428832385,-1.284421433588917,1.114751858340298,-0.1708644330501556,0.1613304913043976,0.0922962874174118,0.05229109525680542,0.01182413101196289,-0.03259271383285522,2,0.6422701088191731,0.159021093402969,0.4729409992970198,0.5818317977640729,-0.4224646687507629,-0.8978015184402466,-0.1244027987122536,-26.83217620849609,-40.50581359863281,16.02593994140625,2
1596230209.710028,68,0,102541.8943389167,2.227876584019222,-1.273013714727534,1.116275363994102,-0.06655969470739365,0.1201091110706329,-0.3031452894210815,-0.1047216653823853,0.07910776138305664,-0.1057143211364746,2,0.6403557775500874,0.1598069556359541,0.4733143312780572,0.583420674425196,-0.4197097718715668,-0.8984714150428772,-0.1288124322891235,-26.86957550048828,-40.54320526123047,15.67459106445312,2
1596230209.739513,69,0,102541.9244359167,2.222733831825396,-1.2604298209022,1.125112919442899,0.06769292056560516,0.4063592553138733,-0.1816446930170059,0.0120360255241394,0.03960847854614258,-0.04576659202575684,2,0.6378837371748446,0.1651591931136344,0.4731563068909747,0.5847649072677138,-0.4104788303375244,-0.9023162722587585,-0.1316535621881485,-26.57199859619141,-41.00430297851562,15.5938720703125,2
1596230209.770516,70,0,102541.9545339167,2.222601481162872,-1.248768715408026,1.129677875161388,0.009545350447297096,0.2736097574234009,-0.2057116329669952,-0.0481698215007782,-0.06295996904373169,0.04417908191680908,2,0.6351805101157695,0.1702429791086146,0.4754418010943202,0.5843956447743468,-0.4050042331218719,-0.9042747020721436,-0.1351260989904404,-26.53009033203125,-41.14889526367188,15.29293823242188,2
1596230209.799752,71,0,102541.9846319167,2.214145203597905,-1.23092892237174,1.13655951605472,-0.06668560206890106,0.4294932782649994,-0.247828483581543,-0.2319733500480652,0.07776784896850586,0.04192763566970825,2,0.6317572404766227,0.1753768315234198,0.4765214107302453,0.5857073859267834,-0.3966526985168457,-0.9071913957595825,-0.1402515172958374,-26.64090728759766,-41.31432342529297,14.96664428710938,2
1596230209.830793,72,0,102542.0147299167,2.20292011149029,-1.204332865886312,1.145906720913856,0.05308225005865097,0.6118000149726868,-0.5326389670372009,-0.1261086761951447,0.1700618267059326,0.01547050476074219,2,0.6265735990209679,0.1831747009655025,0.4787354912765448,0.5870816975286339,-0.3848490118980408,-0.9110842347145081,-0.1477051079273224,-26.41513061523438,-41.41681671142578,14.72100830078125,2
1596230209.859871,73,0,102542.0448279167,2.193373149625277,-1.174627537070879,1.16155490703408,-0.1334515511989594,0.9526151418685913,-0.2795701324939728,-0.1108254790306091,-0.2726714611053467,0.1915602684020996,2,0.6206916397276783,0.1948515823300592,0.4803744256162221,0.5882304959892003,-0.3670935034751892,-0.9174229502677917,-0.1535494923591614,-26.01927947998047,-41.83525085449219,14.11099243164062,2
1596230209.907993,74,0,102542.0749249167,2.181348216338541,-1.121244342858672,1.158664109340081,0.1404174566268921,1.508630990982056,0.02848719619214535,-0.1923134326934814,0.2406240701675415,-0.1697213053703308,2,0.6088052845774882,0.2057211493421127,0.4941474519856002,0.5855366826183139,-0.3607645928859711,-0.9162688255310059,-0.1740698665380478,-26.17088317871094,-42.08778381347656,13.3782958984375,2
1596230209.92007,75,0,102542.1050229167,2.175243608341042,-1.078650243568935,1.173786603273048,0.03681690990924835,1.035080194473267,-0.8941014409065247,-0.1052756905555725,0.2317036986351013,-0.06828725337982178,2,0.5994299771987841,0.222106299720033,0.5005548586268579,0.5837784182792837,-0.3407734334468842,-0.9222213625907898,-0.1827049851417542,-26.58582305908203,-42.17952728271484,12.35836791992188,2
1596230209.967326,76,0,102542.1351209167,2.155559244500318,-1.030452382089293,1.194619195077086,0.119391068816185,1.114320278167725,-0.4003656208515167,0.3566226959228516,-0.1592613458633423,0.1383653879165649,2,0.5905258750621877,0.2382991703731538,0.5026659524720751,0.584653523739477,-0.3150295913219452,-0.9300758242607117,-0.1889853924512863,-25.89112854003906,-42.58518218994141,11.66357421875,2
1596230209.980184,77,0,102542.1652189167,2.142818072803974,-0.9956254172319459,1.198294211762698,-0.2897240221500397,0.2332120537757874,-0.1438942551612854,0.2847163379192352,-0.06559872627258301,0.230046272277832,2,0.5834596512072275,0.2461406368857132,0.5080187987172837,0.5838719797903403,-0.3053877055644989,-0.9314196109771729,-0.1979792416095734,-26.01492309570312,-43.10465240478516,11.22079467773438,2
1596230210.03062,78,0,102542.1953159167,2.103995114501262,-0.9683699820459134,1.198051557745226,-0.3550621569156647,-0.7028560042381287,-0.3237605094909668,0.2757052779197693,0.06842124462127686,-0.06221401691436768,2,0.5812892810525492,0.2427440527800071,0.5046341449198178,0.5903578746405687,-0.3000651001930237,-0.9313312768936157,-0.2063561975955963,-25.60863494873047,-43.08250427246094,10.81985473632812,2
1596230210.040422,79,0,102542.2254139167,2.072943484341173,-0.9676731928081369,1.197827487020767,-0.3856842219829559,-1.028568267822266,-0.02526879496872425,0.2389904856681824,-0.1558436155319214,-0.0110093355178833,2,0.5847988124268508,0.233813091799366,0.4956817122913672,0.5980312355941115,-0.3000930845737457,-0.9312496781349182,-0.2066835761070251,-25.15041351318359,-43.18515014648438,10.82919311523438,2
1596230210.086964,80,0,102542.25551125,2.050182306337669,-0.9695210559097384,1.189019838151572,-0.2704330086708069,-0.5113552808761597,0.1006447672843933,-0.04403197765350342,0.04255765676498413,0.02766895294189453,2,0.5871860229818209,0.2232312970429704,0.4910535816811975,0.6035286526561904,-0.3072266280651093,-0.9280042052268982,-0.2107607275247574,-24.77185821533203,-43.49135589599609,10.6724853515625,2
1596230210.100734,81,0,102542.28560925,2.035068478464644,-0.96720489532049,1.188005871431312,-0.1175382882356644,-0.3006512522697449,-0.2914180755615234,-0.2046769261360168,0.1317431330680847,-0.1521145105361938,2,0.5882092722556165,0.2191049092706062,0.4874768935065927,0.6069343488373246,-0.3075122535228729,-0.9276260137557983,-0.2120057791471481,-24.67053985595703,-43.39704132080078,10.70022583007812,2
1596230210.150011,82,0,102542.31570625,2.023582352691226,-0.9606091450225355,1.195137948953479,0.1056383922696114,-0.02783269435167313,-0.1247424259781837,-0.01366755366325378,-0.0006057024002075195,-0.1365469694137573,2,0.5884629955712224,0.2204424986720907,0.4836965739078857,0.6092241289907616,-0.3006772994995117,-0.930266261100769,-0.2102328091859818,-24.22882080078125,-43.66999816894531,10.93536376953125,2
1596230210.160847,83,0,102542.34580425,2.023931610244329,-0.9609644054087191,1.198482629072886,0.04509174078702927,0.02876568585634232,-0.1799491047859192,-0.1038860678672791,0.04303658008575439,0.03390109539031982,2,0.5887908410966478,0.2217066656378939,0.4826516532005518,0.6092774841390611,-0.2981999814510345,-0.9314881563186646,-0.2083429992198944,-23.99238586425781,-43.54625701904297,11.08978271484375,2
1596230210.208959,84,0,102542.37590225,2.017020468261022,-0.9516981925465692,1.204549743460477,0.05341582745313644,0.2073157429695129,-0.1764889508485794,-0.1046364903450012,0.06082016229629517,0.01873135566711426,2,0.5878420296568079,0.2247997301762749,0.4813688416880043,0.6100745275081942,-0.2916485071182251,-0.9336780905723572,-0.2078136652708054,-23.69646453857422,-43.76095581054688,11.03030395507812,2
1596230210.221088,85,0,102542.40600025,2.013729290880045,-0.9421365070495581,1.209832818465706,0.08299322426319122,0.1984300464391708,-0.1680842339992523,0.1165373921394348,-0.02574586868286133,0.02937769889831543,2,0.5863686500374521,0.2287515759475027,0.4815141111447508,0.6099087549932302,-0.2856543660163879,-0.935556948184967,-0.2076890468597412,-23.63941955566406,-43.8992919921875,10.94577026367188,2
1596230210.269918,86,0,102542.43609825,2.017634651325658,-0.941240812931977,1.2139882499858,0.2091517448425293,0.0468139760196209,0.01084941904991865,0.1641411483287811,-0.05487573146820068,-0.02657866477966309,2,0.5860616197550399,0.2317426425599342,0.4816615165237941,0.6089576906735045,-0.2823237180709839,-0.937016487121582,-0.2056542485952377,-23.53820037841797,-43.80940246582031,11.05459594726562,2
1596230210.281283,87,0,102542.46619525,2.027016870598028,-0.954320741149192,1.216649279133353,-0.01054492779076099,-0.3757272958755493,-0.04959135875105858,0.0084381103515625,0.06538689136505127,0.04395830631256104,2,0.5883413473340032,0.2315248469729766,0.4798386719246891,0.6082807869798458,-0.2829536199569702,-0.9379426240921021,-0.200501412153244,-23.356689453125,-43.7772216796875,11.16195678710938,2
1596230210.330192,88,0,102542.49629325,2.027418657447565,-0.9607181875874035,1.219263692997891,0.08679139614105225,0.04453923180699348,-0.06053388118743896,-0.0865744948387146,-0.02457880973815918,0.02178919315338135,2,0.5900365223244816,0.2306862375221887,0.4772517789589537,0.608992165178571,-0.2822197377681732,-0.9388460516929626,-0.1972815245389938,-23.42900848388672,-43.93376159667969,11.43106079101562,2
1596230210.341389,89,0,102542.52639125,2.028408038348508,-0.9577760246459037,1.221214637377749,0.04355712980031967,0.1203278005123138,-0.03392190486192703,0.02273678779602051,0.02166283130645752,-0.001921534538269043,2,0.5893753349876063,0.232611782728635,0.4778046011873958,0.6084663419925849,-0.2801396250724792,-0.9395160675048828,-0.1970569491386414,-23.42006683349609,-43.90728759765625,11.42501831054688,2
1596230210.389423,90,0,102542.55648925,2.028232958318678,-0.9543248936916626,1.222282184628655,-0.01036356762051582,0.03504399582743645,-0.01286876201629639,0.05879867076873779,-0.01541244983673096,-0.01271510124206543,2,0.5886562514841278,0.2340138310819695,0.4784307449695869,0.6081328009443773,-0.2786395251750946,-0.9398811459541321,-0.1974426954984665,-23.30159759521484,-43.9000244140625,11.36773681640625,2
1596230210.401971,91,0,102542.58658625,2.035150839527161,-0.9641054464169934,1.224049348889306,0.08621026575565338,-0.1944749653339386,-0.02697303518652916,0.09852805733680725,0.0404961109161377,-0.02111673355102539,2,0.5903229003435863,0.2337490455845911,0.4770920616227688,0.6076704513726869,-0.2791919708251953,-0.9404832124710083,-0.1937605142593384,-23.13717651367188,-44.04830932617188,11.74627685546875,2
1596230210.450832,92,0,102542.61668425,2.033345191516361,-0.9714419521107088,1.223896300150759,-0.03724829480051994,-0.1825063228607178,0.03052974306046963,-0.05204826593399048,-0.04973608255386353,0.05429220199584961,2,0.5922660879265345,0.2309257745041451,0.4744223553890093,0.6089479767546563,-0.280724972486496,-0.9404311776161194,-0.1917883306741714,-23.14772033691406,-43.91201019287109,11.89138793945312,2
1596230210.461876,93,0,102542.64678225,2.033227742386797,-0.9710871503535908,1.22173375424442,-0.04176271706819534,0.09645996987819672,0.07108008116483688,-0.09747463464736938,0.04206109046936035,-0.01663339138031006,2,0.5920297276338083,0.2301808372144259,0.4751757688183533,0.6088723214721152,-0.2823348939418793,-0.9396937489509583,-0.1930351704359055,-23.34280395507812,-43.79133605957031,11.76388549804688,2
1596230210.507388,94,0,102542.67688025,2.036017345702395,-0.9676075486386153,1.222890326961543,0.1838965117931366,0.3047385513782501,-0.06250004470348358,-0.07779359817504883,0.0477253794670105,-0.05943059921264648,2,0.5909677595743148,0.2325019185393405,0.4766877620791201,0.6078394555344533,-0.2807665169239044,-0.94008868932724,-0.1933999359607697,-23.26935577392578,-43.82408905029297,11.74270629882812,2
1596230210.522107,95,0,102542.70697725,2.049013612673082,-0.9696822653771614,1.225755948174454,0.1312850117683411,0.3351714015007019,0.09864924848079681,0.03518202900886536,0.004689931869506836,-0.100323498249054,2,0.5901538177134067,0.2367954702118918,0.4791095032860881,0.6050624890167655,-0.2789444923400879,-0.941061794757843,-0.1912927478551865,-23.44853973388672,-43.63169097900391,11.60012817382812,2
1596230210.568406,96,0,102542.73707525,2.066675330122038,-0.9757190139911674,1.225181521406669,0.1453628987073898,0.529071569442749,0.1078279688954353,-0.01030302047729492,0.01140499114990234,-0.02921688556671143,2,0.5894595078224605,0.2399652900669755,0.4828385196243692,0.6015157694282991,-0.2805416882038116,-0.9408673644065857,-0.1899082958698273,-23.61386871337891,-43.71347045898438,11.81851196289062,2
1596230210.582218,97,0,102542.76717325,2.086458058009846,-0.975094017652381,1.218751047693634,0.232150211930275,0.1943219304084778,0.3714064061641693,0.2171503007411957,-0.0734487771987915,-0.09384012222290039,2,0.586479617539951,0.2435251679061261,0.4909771018582234,0.5963880445149975,-0.2854251265525818,-0.9386694431304932,-0.1934743076562881,-24.34044647216797,-43.52542114257812,11.29669189453125,2
1596230210.632161,98,0,102542.79727125,2.099479828268899,-0.9848982020637146,1.218745645153876,-0.002679232507944107,0.0209452398121357,-0.1842555403709412,-0.1182321608066559,0.1066182255744934,0.1017730236053467,2,0.587300044184322,0.2444255752630914,0.4919783904877074,0.5943838831804942,-0.2873126268386841,-0.9386675357818604,-0.1906695961952209,-24.52998352050781,-43.28659057617188,11.424072265625,2
1596230210.642359,99,0,102542.82736825,2.098532823659555,-0.9811593032470839,1.222801693058538,0.02478451281785965,0.1608252227306366,0.04357924684882164,0.07734203338623047,-0.03810518980026245,0.04333961009979248,2,0.5867509369241725,0.2468025823021761,0.491514922923128,0.5943272612928481,-0.2834306657314301,-0.9400584697723389,-0.1896236538887024,-24.45123291015625,-43.34564208984375,11.633544921875,2
1596230210.688195,100,0,102542.85746625,2.107091623031566,-0.9823965726368393,1.220785746833209,0.1117806658148766,0.2245807498693466,0.1048517897725105,0.02989107370376587,0.003859400749206543,0.02398484945297241,2,0.5858719335964772,0.2481770644384484,0.494327196982764,0.5922862147110488,-0.2852411568164825,-0.9393690824508667,-0.1903244405984879,-24.36785125732422,-43.38920593261719,11.6298828125,2
1596230210.70278,101,0,102542.88756425,2.115578229922273,-0.9870769507045627,1.219887971994488,-0.0125329801812768,-0.01743898168206215,0.04068957269191742,-0.004705160856246948,0.007087051868438721,0.01541018486022949,2,0.5859218140105542,0.24893693307229,0.4957489706176456,0.5907276186746788,-0.2868324220180511,-0.9390608668327332,-0.1894520670175552,-24.62180328369141,-43.24150848388672,11.36798095703125,2
1596230210.752462,102,0,102542.91766225,2.114871968808071,-0.9879170088382638,1.219115745176849,-0.0300692580640316,-0.01662009954452515,0.02525143325328827,-0.01873135566711426,0.01743805408477783,-0.01293313503265381,2,0.5861722211424804,0.2481875143008654,0.4955374668603092,0.590971961422621,-0.2875968813896179,-0.9387950897216797,-0.189610168337822,-24.84696197509766,-43.34685516357422,11.4832763671875,2
1596230210.762821,103,0,102542.94775925,2.120722097615706,-0.9924030989457714,1.218548348641318,0.04933933168649673,0.05115849524736404,0.1293854117393494,-0.04474851489067078,0.03118652105331421,-0.02613961696624756,2,0.586525171628655,0.248361828673201,0.4961282573784731,0.590052144532742,-0.2888905704021454,-0.9385995268821716,-0.1886092573404312,-24.93142700195312,-43.38036346435547,11.42459106445312,2
1596230210.806642,104,0,102542.97785725,2.131926448766437,-1.000640585233701,1.216567058271496,0.007603923790156841,0.06605949997901917,0.1155783757567406,-0.007845431566238403,-0.0005140304565429688,-0.05509865283966064,2,0.5870696455994199,0.248467380140703,0.4976353090623183,0.5881941191262096,-0.2919990718364716,-0.9379141330718994,-0.1872263848781586,-25.05837249755859,-43.279541015625,11.52133178710938,2
1596230210.823067,105,0,102543.00795525,2.133312408190484,-1.001439079887677,1.213723472376353,-0.04990863427519798,-0.08358905464410782,0.04617289826273918,0.005537658929824829,0.01093363761901855,-0.0236353874206543,2,0.5869425982649737,0.2475544336314719,0.498702749756073,0.5878017877846262,-0.2943938970565796,-0.9369239807128906,-0.1884303838014603,-25.41334533691406,-42.984130859375,11.50286865234375,2
1596230210.869023,106,0,102543.03805325,2.134840287107251,-1.007126415441317,1.212704071942003,0.04894795268774033,-0.1110449582338333,0.04194532334804535,0.005270034074783325,0.03413152694702148,0.003517031669616699,2,0.588116277704126,0.2459425639147385,0.4978013117802783,0.5880691743961182,-0.2962676286697388,-0.9365671873092651,-0.1872629970312119,-25.13825225830078,-43.12146759033203,11.55126953125,2
1596230210.883231,107,0,102543.06815025,2.139075892385702,-1.010262707810777,1.212238353130238,0.04002152383327484,0.1337076425552368,0.02509208209812641,0.02175641059875488,0.0101163387298584,0.03755378723144531,2,0.5883517883563437,0.2460889692357164,0.4982699035038527,0.5873751035711725,-0.297222912311554,-0.9364038109779358,-0.1865647882223129,-25.12190246582031,-42.98817443847656,11.71060180664062,2
1596230210.93081,108,0,102543.09824825,2.143317706563516,-1.012259484101618,1.213228534167887,0.06323757022619247,-0.05762690305709839,-0.01365932542830706,-0.002024680376052856,0.0165712833404541,-0.007842063903808594,2,0.5883771499422118,0.2471284846027055,0.4986165440106693,0.5866187672656132,-0.2968087494373322,-0.9367508292198181,-0.1854796856641769,-25.14719390869141,-43.06954956054688,11.5015869140625,2
1596230210.943415,109,0,102543.12834625,2.148422705987536,-1.022328938038857,1.213578795090419,0.05574455857276917,-0.2573359906673431,0.04650496318936348,0.00500139594078064,-0.002484798431396484,0.008049845695495605,2,0.5902717412194473,0.2458129114798927,0.4970367196151028,0.5866088927371476,-0.2983813881874084,-0.9368733763694763,-0.1823105663061142,-25.24748229980469,-42.93753814697266,11.77548217773438,2
1596230210.987202,110,0,102543.15844325,2.151822476834202,-1.031943077579987,1.2125224065123,-0.01419031526893377,-0.1153125688433647,0.07456376403570175,-0.008504003286361694,-0.001349091529846191,0.02524060010910034,2,0.5921917461798509,0.2435946284802654,0.495524033525928,0.5868787444160235,-0.3009694516658783,-0.9365034699440002,-0.1799411922693253,-25.22013092041016,-43.03351593017578,11.92950439453125,2
1596230211.003697,111,0,102543.18854125,2.15356071900233,-1.035765096029085,1.21037497932095,-0.02244723588228226,-0.08153077214956284,0.05011612176895142,-0.04833874106407166,0.01415157318115234,0.02552378177642822,2,0.5928294720192899,0.2421695042927684,0.4955763615952531,0.5867803305427439,-0.3033839464187622,-0.9357483386993408,-0.1798142939805984,-25.35858154296875,-42.97293853759766,11.99069213867188,2
1596230211.047226,112,0,102543.21863925,2.152921437609824,-1.037052313939271,1.208545580572245,-0.06733874976634979,-0.03095740452408791,0.06669621914625168,-0.04951018095016479,0.0213090181350708,0.03244912624359131,2,0.5931423549969037,0.2409045647794379,0.495581643543649,0.5869803494226402,-0.3050884306430817,-0.9351015686988831,-0.1802942752838135,-25.39448547363281,-42.69702911376953,12.03656005859375,2
