loggingTime,loggingSample,identifierForVendor,motionTimestamp_sinceReboot,motionYaw,motionRoll,motionPitch,motionRotationRateX,motionRotationRateY,motionRotationRateZ,motionUserAccelerationX,motionUserAccelerationY,motionUserAccelerationZ,motionAttitudeReferenceFrame,motionQuaternionX,motionQuaternionY,motionQuaternionZ,motionQuaternionW,motionGravityX,motionGravityY,motionGravityZ,motionMagneticFieldX,motionMagneticFieldY,motionMagneticFieldZ,motionMagneticFieldCalibrationAccuracy
1596230190.881926,1,0,102523.0530045417,1.987038873662025,-1.005067348752553,1.17783396253491,-0.1116374954581261,0.0546841025352478,-0.05649310350418091,0.007834136486053467,0.004555344581604004,0.05359947681427002,2,0.6012693571937657,0.1893274321885263,0.4646383790076911,0.6218853125331386,-0.3232657313346863,-0.923778772354126,-0.2052605599164963,-23.48715209960938,-43.80692291259766,12.01510620117188,2
1596230190.898304,2,0,102523.0831025417,1.985015235893383,-1.005390524316701,1.177944561508266,-0.005289532244205475,-0.2927137017250061,0.02079305425286293,-0.03425443172454834,0.03934204578399658,-0.1010260581970215,2,0.6015451786033889,0.1886600605009831,0.4638772354631253,0.6223895596558748,-0.3232461214065552,-0.9238210916519165,-0.2051015645265579,-23.66013336181641,-44.12429046630859,11.89236450195312,2
1596230190.930169,3,0,102523.1132015417,1.983069308664363,-1.006367776806002,1.179414725050615,0.01542282570153475,0.09470996260643005,-0.08735199272632599,-0.03471136093139648,0.02698695659637451,0.03431582450866699,2,0.6020829073082854,0.1883261450632891,0.4625165788964353,0.6229831228675676,-0.3222986459732056,-0.9243829250335693,-0.2040588706731796,-23.5113525390625,-44.19731140136719,11.882080078125,2
1596230190.958269,4,0,102523.1432995417,1.981501714552576,-1.003469836107364,1.179075407788189,-0.0344342403113842,0.004102182574570179,0.04792710766196251,-0.02985590696334839,0.009888112545013428,0.02693307399749756,2,0.6015304228000478,0.1886288904410948,0.4630066462040499,0.6230612192091347,-0.3219704627990723,-0.9242534041404724,-0.2051605880260468,-23.41663360595703,-44.07791137695312,11.83502197265625,2
1596230190.990244,5,0,102523.1733975417,1.981364085200096,-1.006508185059233,1.178010609462947,-0.04742487147450447,-0.1639571189880371,0.01917455531656742,-0.01446700096130371,0.01737958192825317,-0.026885986328125,2,0.6021528647448214,0.1872382003817971,0.4623831572473551,0.6233423757280261,-0.3234236836433411,-0.9238463640213013,-0.2047075629234314,-23.43064880371094,-43.98239898681641,11.92678833007812,2
1596230191.018708,6,0,102523.2034965417,1.979161363524426,-1.003017048562338,1.176376830290249,-0.02568814158439636,-0.03661315143108368,-0.0666663870215416,0.007107079029083252,0.02973002195358276,0.04992341995239258,2,0.6014070532421473,0.1870461147002638,0.4632586450595981,0.6234698512175445,-0.3239788115024567,-0.9232197999954224,-0.2066466212272644,-23.62070465087891,-43.84651947021484,11.7744140625,2
1596230191.0503,7,0,102523.233595,1.972709253672456,-1.002742707194194,1.179171216722609,-0.05706246942281723,-0.3126897215843201,-0.0860404446721077,0.0780712366104126,0.01352620124816895,0.01613563299179077,2,0.6021951011026768,0.1862461471555709,0.4604518746911667,0.625026020778262,-0.3217463493347168,-0.9242900013923645,-0.205346867442131,-23.54579925537109,-43.94142913818359,11.9122314453125,2
1596230191.078835,8,0,102523.263693,1.969817965942549,-1.011229375639005,1.178426332827991,0.08237986266613007,-0.4714879989624023,0.04985559731721878,0.1774020791053772,-0.06502449512481689,-0.04509150981903076,2,0.6043420614579132,0.1824375004236852,0.4572211617772308,0.626447251815279,-0.3240610063076019,-0.924005389213562,-0.2029744684696198,-23.22802734375,-44.09720611572266,11.9947509765625,2
1596230191.109926,9,0,102523.293792,1.979820798116583,-1.04095891229532,1.179294978598292,0.08427346497774124,-0.7331060171127319,0.01869311928749084,0.09288716316223145,0.02904653549194336,0.08213996887207031,2,0.6102696533204324,0.1764875667811363,0.4510545693847099,0.6268754897536839,-0.3292583823204041,-0.9243372082710266,-0.1928461790084839,-22.91954803466797,-44.05706787109375,12.7626953125,2
1596230191.138986,10,0,102523.32389,1.988694215317816,-1.071289961178193,1.17692495005572,0.1155136898159981,-0.7935077548027039,0.3076881170272827,0.1339801549911499,-0.01536023616790771,-0.1357781291007996,2,0.6161127815702487,0.1688032306081761,0.4452851742367023,0.6274006570803485,-0.3368772566318512,-0.9234302639961243,-0.1838210225105286,-22.68305206298828,-43.98529052734375,12.95147705078125,2
1596230191.170084,11,0,102523.353988,2.015596122103287,-1.113301875289274,1.170629521939296,0.2760082185268402,-0.418034702539444,0.333020031452179,0.04673126339912415,0.02494269609451294,-0.1752865314483643,2,0.6227716082998104,0.1616112769780864,0.4426822036182166,0.6245557291848878,-0.3495093286037445,-0.9209960103034973,-0.172074630856514,-23.30207061767578,-43.70613861083984,13.86630249023438,2
1596230191.199496,12,0,102523.384087,2.053120914734545,-1.15880971030848,1.166225018630577,0.4956460297107697,-0.3227715492248535,0.3284865617752075,0.02177700400352478,0.07362484931945801,-0.2211264967918396,2,0.6295793388597862,0.1575441876164259,0.4414966436787674,0.6195889199738572,-0.3606890738010406,-0.9192712306976318,-0.157619372010231,-23.21661376953125,-43.42122650146484,14.30935668945312,2
1596230191.230182,13,0,102523.414185,2.10325363490304,-1.211100121192644,1.163270025612738,0.6453730463981628,0.03973358124494553,0.3760868310928345,-0.0765012800693512,0.0194326639175415,-0.1705595254898071,2,0.6370614539669109,0.1562016892728374,0.4413093612657749,0.6123722561753926,-0.3709751963615417,-0.9181040525436401,-0.1395074725151062,-23.62388610839844,-42.74938201904297,15.29141235351562,2
1596230191.259396,14,0,102523.444283,2.163984795162611,-1.25603105703975,1.158491904829421,0.7596172690391541,0.6737120151519775,0.388323038816452,-0.1643747687339783,0.03393638134002686,-0.07871723175048828,2,0.6421128409995355,0.1601897156095456,0.4468716747455018,0.6019435230669601,-0.3810337483882904,-0.916199803352356,-0.1240607053041458,-23.79192352294922,-42.38328552246094,15.72109985351562,2
1596230191.290048,15,0,102523.474382,2.226910035314491,-1.298056803076078,1.158220711248062,0.7698079943656921,0.1335843801498413,0.1325960457324982,-0.117503434419632,0.1907778382301331,-0.2064204216003418,2,0.6463982345310793,0.1678229035054942,0.4521875963099981,0.5912115829383382,-0.3861488401889801,-0.9160911440849304,-0.1080095916986465,-24.93224334716797,-41.70226287841797,16.56924438476562,2
1596230191.319649,16,0,102523.50448,2.286391314178155,-1.357499165837113,1.162866475795978,0.9145851135253906,-0.2422705888748169,-0.07763420045375824,-0.1783807873725891,0.1022017002105713,-0.1581771373748779,2,0.6546923643365905,0.1714334634976203,0.4489008753028173,0.5835036543425509,-0.3877198398113251,-0.9179440140724182,-0.08397695422172546,-25.02853393554688,-41.4293212890625,17.05389404296875,2
1596230191.349946,17,0,102523.534578,2.344354085902812,-1.42490499128578,1.172060207294257,0.6729038953781128,-0.7921591997146606,-0.217765673995018,0.01645112037658691,0.03313589096069336,-0.08452248573303223,2,0.6643711100702745,0.1743271752095976,0.4407317861054846,0.5779069636225966,-0.3841291666030884,-0.9215524196624756,-0.05644212663173676,-24.44467926025391,-40.94651794433594,18.75521850585938,2
1596230191.379802,18,0,102523.564677,2.396581498307651,-1.505592039650671,1.183184023515856,0.6619014143943787,-1.082702398300171,-0.3891325294971466,-0.0526542067527771,0.1160990595817566,0.2423791885375977,2,0.6766959591039234,0.1725351908347664,0.4254467363115292,0.5755946366837534,-0.377175509929657,-0.9258142113685608,-0.02462837286293507,-23.98389434814453,-40.78596496582031,19.68109130859375,2
1596230191.410084,19,0,102523.594775,2.433969275137624,-1.561084473994064,1.197288887409104,0.285061240196228,-0.2173968702554703,-0.4159962236881256,-0.05832487344741821,-0.08752971887588501,0.2982338666915894,2,0.6840208463418824,0.1741943247324523,0.4132245840409476,0.5753410284546883,-0.3648661673069,-0.9310532808303833,-0.003543637925758958,-22.57817077636719,-40.74016571044922,21.44973754882812,2
1596230191.440117,20,0,102523.624873,2.448849619225311,-1.576222528278774,1.20336257382005,0.09667214006185532,-0.06850755959749222,-0.1060535535216331,0.016561359167099,-0.06580042839050293,0.1020541191101074,2,0.685302462975001,0.1770173296880325,0.4105736505768623,0.5748519881177472,-0.3592167496681213,-0.9332522749900818,0.001949201570823789,-22.48163604736328,-40.5029296875,21.6763916015625,2
1596230191.487791,21,0,102523.654972,2.470543132552824,-1.601057191413946,1.209037363896322,0.4559281468391418,-0.1272479295730591,-0.2271317839622498,0.2000238597393036,0.009889781475067139,-0.03492152690887451,2,0.6879097304564258,0.1792605453800757,0.4066567653147236,0.5738258065434796,-0.3537576496601105,-0.9352757334709167,0.01070828083902597,-22.07588195800781,-40.65695953369141,21.87179565429688,2
1596230191.500261,22,0,102523.68507,2.50901999685869,-1.642813711897728,1.210667714704334,0.3566400110721588,-0.03840657696127892,0.05606848374009132,-0.06426161527633667,-0.03411287069320679,0.08774399757385254,2,0.6927228826268038,0.1811444482135921,0.4027899598154054,0.5701595825615229,-0.351481169462204,-0.935851514339447,0.02535660564899445,-21.74154663085938,-40.46858215332031,22.28009033203125,2
1596230191.547032,23,0,102523.715168,2.533577939265316,-1.655272326487963,1.210204945784654,0.2569240927696228,0.5939735770225525,-0.0973300039768219,-0.2886285781860352,0.01828849315643311,0.1491732597351074,2,0.6930395285169966,0.185960314101542,0.4055785213837892,0.5662341619694797,-0.3515697419643402,-0.935688316822052,0.02977005392313004,-21.65447235107422,-40.12833404541016,23.02420043945312,2
1596230191.560355,24,0,102523.745267,2.553290797001779,-1.647627322827981,1.214738324079853,0.183163657784462,1.223254919052124,-0.2882362306118011,-0.4757891893386841,0.09907805919647217,-0.03717911243438721,2,0.6890563153878795,0.1964158064580744,0.4125424028167373,0.5625218851815652,-0.3475535213947296,-0.9372782111167908,0.02675554901361465,-22.06008148193359,-40.01559448242188,22.65567016601562,2
1596230191.606043,25,0,102523.775365,2.595521448234864,-1.649358751397829,1.228624618343751,0.8127923011779785,1.178309440612793,-0.6688856482505798,0.0816119909286499,0.1471661329269409,-0.1543807983398438,2,0.683347819474878,0.2149473634907047,0.4200052998912155,0.5571614635827954,-0.3344986438751221,-0.9420282244682312,0.02633322216570377,-22.36867523193359,-40.11082458496094,22.36856079101562,2
1596230191.620984,26,0,102523.805463,2.683805161885517,-1.70230751034156,1.244123729444917,0.6631487607955933,0.7112922668457031,-0.4151654243469238,0.4005853831768036,-0.02547359466552734,0.1739135980606079,2,0.6823742018819956,0.2353831364531464,0.422245691521647,0.5483327868767105,-0.3181225657463074,-0.9471153020858765,0.04207954555749893,-22.37985229492188,-39.83713531494141,22.78823852539062,2
1596230191.666224,27,0,102523.835561,2.706023361367365,-1.709920013166164,1.246199246367115,-0.02299192175269127,0.1838999837636948,0.1723295450210571,0.3957753777503967,-0.1553853750228882,0.1386251449584961,2,0.6810163249452473,0.2415169609225171,0.4251956803246589,0.5450642965782413,-0.3158458471298218,-0.9477792978286743,0.04422735422849655,-22.47159576416016,-39.76419830322266,23.0037841796875,2
1596230191.680762,28,0,102523.86566,2.714520849823836,-1.720234323066008,1.236243771986237,0.3204132616519928,-0.1962510943412781,0.4022041261196136,0.3167083859443665,-0.007818043231964111,-0.08365511894226074,2,0.6837639748068043,0.2385567878383856,0.4264908856221163,0.5419068254141737,-0.3246870934963226,-0.9445573091506958,0.04888502880930901,-22.82598114013672,-39.57713317871094,22.95901489257812,2
1596230191.728568,29,0,102523.895758,2.728951574500798,-1.736298104049177,1.220080836123599,0.1197292283177376,0.06281129270792007,0.6169968843460083,0.1548802852630615,-0.07164108753204346,0.0720212459564209,2,0.688063573116216,0.2342427085351929,0.4288762740066806,0.5364365161767548,-0.3388755917549133,-0.9391271471977234,0.05660225450992584,-23.02362823486328,-39.33470916748047,23.33038330078125,2
1596230191.740935,30,0,102523.925856,2.728761687822942,-1.73541592335702,1.199736981775088,0.1537386775016785,-0.1227450519800186,0.7114198207855225,0.1537728309631348,0.04378926753997803,0.130396842956543,2,0.6911072148574774,0.2282147239507542,0.4340977179743116,0.5308935788185885,-0.3577006757259369,-0.9319437742233276,0.05942228436470032,-24.12255096435547,-38.74720001220703,23.40634155273438,2
1596230191.789187,31,0,102523.955955,2.729714332459189,-1.742127675341063,1.177966016201402,0.1304959058761597,-0.1564743667840958,0.6701861619949341,0.04575914144515991,0.02961385250091553,0.04047441482543945,2,0.6958297118630268,0.220122825713219,0.4372832699055323,0.525500158262137,-0.3772002160549164,-0.9238293170928955,0.06526609510183334,-24.38066101074219,-38.37630462646484,23.721435546875,2
1596230191.801249,32,0,102523.986053,2.731525670752031,-1.748708194986919,1.157400449201574,0.1006902083754539,-0.2906809449195862,0.7333048582077026,0.2422865033149719,0.01411318778991699,0.1672573089599609,2,0.700203257362722,0.2127503543313896,0.4403677885526608,0.5201240461722172,-0.3953807651996613,-0.9157618880271912,0.07109463214874268,-25.16861724853516,-37.40265655517578,24.10336303710938,2
1596230191.84812,33,0,102524.016151,2.706809994495845,-1.746404653236553,1.131975402257495,-0.6049064993858337,-1.233459830284119,1.026362419128418,0.1567904651165009,-0.04254287481307983,0.4380676746368408,2,0.7059505015601619,0.1968452137937658,0.4408010364335467,0.518247454207045,-0.4183383584022522,-0.9052532315254211,0.07422829419374466,-25.67386627197266,-37.08313751220703,24.38009643554688,2
1596230191.861359,34,0,102524.046249,2.630252085765746,-1.728367677417597,1.109133432879729,-1.128861665725708,-1.863641738891602,0.7596027255058289,0.1681805551052094,-0.01582866907119751,0.4131138324737549,2,0.7120215168295063,0.1672555233462398,0.4327308513053785,0.5270625624536582,-0.439919114112854,-0.895313024520874,0.0698980987071991,-25.82990264892578,-36.84342956542969,24.65411376953125,2
1596230191.906348,35,0,102524.076348,2.547018464721128,-1.706131595690515,1.088414731118725,-1.295184016227722,-1.812088251113892,1.200592398643494,0.2685453593730927,-0.1185312867164612,0.3402143716812134,2,0.7159501936375651,0.1367843171956569,0.4237401595513302,0.5377263859084698,-0.4596486389636993,-0.8858926296234131,0.06258925795555115,-25.5277099609375,-36.83680725097656,24.36764526367188,2
1596230191.921556,36,0,102524.106446,2.436511793580054,-1.676418250278387,1.05089465717932,-1.82670521736145,-2.320423126220703,1.411665081977844,-0.05198860168457031,0.00648033618927002,0.4170645475387573,2,0.719431758223865,0.09276531565865048,0.4142309455476541,0.5497501993874772,-0.4940263032913208,-0.8678680062294006,0.05237491801381111,-25.29837036132812,-37.07980346679688,24.39630126953125,2
1596230191.967872,37,0,102524.136544,2.319392216250415,-1.635446978842503,1.019746532075981,-1.847113847732544,-1.756541609764099,1.086684226989746,-0.2742702960968018,0.2256783246994019,0.1053129434585571,2,0.7171200695117026,0.05149737698725942,0.4048661682149772,0.5649515898092056,-0.5224882364273071,-0.8519753217697144,0.03382634744048119,-25.29142761230469,-37.3870849609375,24.16360473632812,2
1596230191.98171,38,0,102524.166643,2.236810140901626,-1.613957268101086,0.9939005891756951,-0.8835136294364929,-1.183067083358765,0.6996386051177979,-0.1979643106460571,0.2938445806503296,-0.4303216934204102,2,0.715124219461992,0.01908455184468683,0.396351498448243,0.5754464910944177,-0.5449168086051941,-0.8381597995758057,0.02353373914957047,-25.08846282958984,-38.11012268066406,23.33676147460938,2
1596230192.025415,39,0,102524.196741,2.198953029362892,-1.608385976695546,0.9739207100449129,-0.6509014368057251,-0.8187606930732727,0.8731507658958435,0.09601783752441406,0.04061102867126465,-0.2406069040298462,2,0.7145357380504147,0.0001838338479455692,0.3931762302786891,0.5786632780733908,-0.5616641640663147,-0.8270957469940186,0.02112270891666412,-25.12370300292969,-38.14139556884766,23.04110717773438,2
1596230192.041939,40,0,102524.2268381667,2.161352854554216,-1.595693582301685,0.9411304692598931,-0.7033480405807495,-0.563005805015564,1.282406806945801,0.05464065074920654,-0.02981573343276978,0.1107156276702881,2,0.7119601565974552,-0.0210394870549741,0.39631090391809,0.579316602272586,-0.5886921882629395,-0.8082243204116821,0.01465984899550676,-25.81239318847656,-37.85868835449219,22.98724365234375,2
1596230192.089072,41,0,102524.2569361667,2.119065318613862,-1.586430130711173,0.9091389188038815,-0.8745506405830383,-0.8744874596595764,0.6036210656166077,-0.6465572118759155,0.1512356996536255,-0.1308350563049316,2,0.7090926808571162,-0.04461252240412955,0.3966233919439437,0.581280645190061,-0.6143502593040466,-0.788974940776825,0.009605414234101772,-26.67897033691406,-37.56570434570312,22.24835205078125,2
1596230192.102198,42,0,102524.2870351667,2.090437955115459,-1.576572139190366,0.9079687953943472,-0.1920703947544098,-0.01340631116181612,-0.2613530457019806,-0.5827969312667847,0.3034147024154663,-0.2564156055450439,2,0.7064306708519036,-0.05227585714954264,0.3920933060437661,0.5869291426733867,-0.6153379082679749,-0.7882554531097412,0.003554116003215313,-26.44948577880859,-37.89310455322266,22.322265625,2
1596230192.148735,43,0,102524.3171331667,2.092156132788734,-1.568372672157645,0.9144101254808016,0.1947340965270996,0.6454439163208008,-0.2142333686351776,-0.2477682828903198,0.203624963760376,-0.3844468593597412,2,0.7050194306171789,-0.04699016860813732,0.3935988471720405,0.5880641479240217,-0.6102561354637146,-0.7922027707099915,-0.00147905305493623,-26.57023620605469,-37.95060729980469,21.73062133789062,2
1596230192.162386,44,0,102524.3472311667,2.1122937513078,-1.554276970743467,0.9217545661400253,0.6609089374542236,1.158146619796753,-0.1658340990543365,0.135823667049408,0.07898008823394775,-0.263155460357666,2,0.7027857571578484,-0.03316721944019424,0.4023158603676632,0.5857764865456757,-0.6043408513069153,-0.7966633439064026,-0.009984230622649193,-26.80133056640625,-37.98419189453125,21.67861938476562,2
1596230192.208466,45,0,102524.3773301667,2.148212555264829,-1.557837063456258,0.9240269158101952,0.5206632614135742,0.3847112357616425,-0.04364816844463348,-0.06745749711990356,-0.1262797117233276,0.09032249450683594,2,0.7040342572505038,-0.02076471465431839,0.4108610371611551,0.5788763582628027,-0.6025608777999878,-0.7980347275733948,-0.00780918262898922,-27.26312255859375,-37.56507873535156,21.77362060546875,2
1596230192.2225,46,0,102524.4074281667,2.151561379563513,-1.55507928916395,0.9273153595534278,-0.2804270684719086,0.1612112671136856,-0.1274409890174866,0.0594484806060791,0.003104805946350098,0.4163972139358521,2,0.7035443819833527,-0.01762132576941838,0.411849534757238,0.5788737535736377,-0.5999099016189575,-0.8000121116638184,-0.009429583325982094,-27.50726318359375,-37.41847991943359,21.51467895507812,2
1596230192.269132,47,0,102524.4375261667,2.13486639639974,-1.539954623924117,0.9288449074878481,-0.3597502112388611,-0.194251760840416,-0.001547314692288637,0.06779003143310547,-0.03310590982437134,0.1453260183334351,2,0.7003029288796634,-0.01854428718763812,0.4118655676553376,0.5827509251954174,-0.5984747409820557,-0.8009288311004639,-0.01846383512020111,-27.01886749267578,-37.77644348144531,21.38067626953125,2
1596230192.282773,48,0,102524.4676241667,2.108330261032421,-1.531987368511047,0.9280010888538958,-0.6811362504959106,-0.5742641091346741,0.04110843688249588,0.1239393949508667,-0.006854653358459473,0.05951738357543945,2,0.6983594847508704,-0.02579191190911506,0.4071304501128191,0.5881101971983898,-0.5989838242530823,-0.8004233241081238,-0.02325761504471302,-27.10794067382812,-38.06855773925781,20.9906005859375,2
1596230192.328942,49,0,102524.4977231667,2.079428006147463,-1.525559423699103,0.9246122804732889,-0.3661899864673615,-0.5021960139274597,0.0778399184346199,-0.007377743721008301,0.04895824193954468,-0.127084493637085,2,0.6965251764177476,-0.03518172172460404,0.4018327474227829,0.5934183888408109,-0.6015282273292542,-0.798387348651886,-0.02722984924912453,-26.97927856445312,-38.64297485351562,20.679443359375,2
1596230192.343001,50,0,102524.5278211667,2.068849792688891,-1.526207724872153,0.9259356782008887,-0.1729840338230133,-0.07577721774578094,-0.186818927526474,-0.1445538401603699,0.05469381809234619,0.01279228925704956,2,0.696501781106436,-0.03858613441429937,0.3980702001962427,0.5957655386145804,-0.6004897952079773,-0.7991835474967957,-0.02679275907576084,-26.69058990478516,-38.73017883300781,20.62216186523438,2
1596230192.391441,51,0,102524.5579191667,2.055857162020171,-1.515395613448204,0.9309661948805869,-0.2976256608963013,0.0225851982831955,-0.1187507137656212,-0.06576830148696899,-0.01265585422515869,0.05924516916275024,2,0.6942765415468046,-0.03807603982441399,0.396450759136702,0.59946411172846,-0.596143364906311,-0.8021972179412842,-0.03306059911847115,-26.40847778320312,-38.91930389404297,20.40484619140625,2
1596230192.403064,52,0,102524.5880171667,2.040098883815286,-1.503357843530328,0.9331234729119403,-0.3278152644634247,-0.1012080013751984,-0.0783773735165596,0.06289255619049072,-0.0005336999893188477,-0.04404544830322266,2,0.6916711177988321,-0.03914445884589401,0.3952388648743157,0.6031957582536076,-0.5939741730690002,-0.8034833669662476,-0.04011755064129829,-26.30990600585938,-39.02032470703125,20.18167114257812,2
1596230192.449283,53,0,102524.6181161667,2.024270949432725,-1.496558579604875,0.9347179522494969,-0.2130983471870422,-0.3118015229701996,-0.09255605936050415,0.01281410455703735,0.09144598245620728,-0.2019453048706055,2,0.6900777581619253,-0.04198375094588569,0.3923211485390146,0.6067242262466627,-0.5924093127250671,-0.8044315576553345,-0.04406010359525681,-26.2984619140625,-39.38297271728516,19.91314697265625,2
1596230192.463297,54,0,102524.6482141667,2.022595471793027,-1.49989173502366,0.9400223215876166,0.08279890567064285,0.140062004327774,-0.2174223363399506,0.1024482250213623,0.01445853710174561,0.02664214372634888,2,0.6909212681930239,-0.04167266462680652,0.3890631929373021,0.607882477928118,-0.5882882475852966,-0.8075712919235229,-0.04178237915039062,-26.08207702636719,-39.49222564697266,19.867431640625,2
1596230192.508886,55,0,102524.6783121667,2.021300657717326,-1.486971818064368,0.9407671393425214,-0.12825608253479,0.5003442168235779,0.1740474849939346,0.1147935390472412,-0.03058290481567383,0.09224367141723633,2,0.6884020545585494,-0.0379228540190078,0.3928999296884209,0.608518002046038,-0.5870997309684753,-0.8080103397369385,-0.04932893812656403,-25.89642333984375,-39.77091217041016,19.83657836914062,2
1596230192.523624,56,0,102524.7084101667,2.020843852200659,-1.47485927481162,0.9361125462170898,0.04029719531536102,0.2902185916900635,0.08552598208189011,-0.03888231515884399,-0.1020662784576416,-0.04807627201080322,2,0.6857848339201292,-0.03607112121781775,0.3983244967107898,0.6080589797474426,-0.5901965498924255,-0.8052592277526855,-0.05679607018828392,-26.56011199951172,-39.48368835449219,19.306884765625,2
1596230192.568559,57,0,102524.7385091667,2.014570183158302,-1.464975399510003,0.9332957182041758,-0.2468365132808685,0.0931691974401474,0.06573852151632309,-0.1912496089935303,0.05154162645339966,0.0160287618637085,2,0.6835602314052338,-0.03622749164681183,0.4006467734918945,0.6090280659881735,-0.5918595194816589,-0.8035858869552612,-0.0628659576177597,-26.30538177490234,-39.30292510986328,19.09249877929688,2
1596230192.583765,58,0,102524.7686071667,2.010671339517647,-1.453946049213158,0.9363961237826497,0.1415018290281296,0.5001818537712097,-0.3056164383888245,-0.1551012396812439,0.126894474029541,-0.07344865798950195,2,0.681437113193929,-0.03307473543559508,0.4022884509300994,0.6105027813868262,-0.5886529684066772,-0.8054273128509521,-0.06909904628992081,-26.55830383300781,-39.49177551269531,18.81195068359375,2
1596230192.629602,59,0,102524.7987051667,2.016232386119674,-1.440409430251342,0.9452841180770321,0.101492203772068,0.6369174122810364,-0.1598720699548721,0.03928452730178833,0.0425713062286377,-0.03615903854370117,2,0.6792413048347274,-0.0238273559498684,0.4059133708462483,0.6109809577606397,-0.5805423855781555,-0.8106633424758911,-0.07612701505422592,-26.51475524902344,-39.8304443359375,18.54766845703125,2
1596230192.643914,60,0,102524.8288031667,2.024436766504636,-1.427659162764129,0.9496373475212847,0.2796930372714996,0.6631861329078674,-0.158845528960228,-0.02825021743774414,0.02619552612304688,-0.1158745288848877,2,0.6769403994242233,-0.01556997478041183,0.411430383163042,0.6101101548769499,-0.5760264992713928,-0.8132045269012451,-0.08301854133605957,-26.72917938232422,-39.87626647949219,18.21533203125,2
1596230192.687201,61,0,102524.8589021667,2.038023903812138,-1.417877399745148,0.9581571822332103,0.3028361201286316,0.7221769094467163,-0.2959344685077667,-0.05148923397064209,0.03798127174377441,-0.0402417778968811,2,0.6754116485013654,-0.004886684783407369,0.4163162341905714,0.6086673951651567,-0.5683184266090393,-0.8181332945823669,-0.08759044855833054,-26.96226501464844,-39.68118286132812,17.94305419921875,2
1596230192.704003,62,0,102524.8890001667,2.050804179604931,-1.40597599994748,0.9671290206250099,0.2577469050884247,0.6830259561538696,-0.1963206678628922,0.02058744430541992,-0.01056504249572754,0.002812862396240234,2,0.6733424841773794,0.006325319276926422,0.4215209966953281,0.6073631637348222,-0.5599724650382996,-0.8232593536376953,-0.09313977509737015,-27.2012939453125,-39.91448211669922,17.99545288085938,2
1596230192.748359,63,0,102524.9190981667,2.063044878473905,-1.398350270635994,0.9745047688771817,0.3028288781642914,0.5185099244117737,-0.2498914301395416,-0.02211600542068481,0.01361435651779175,-0.03524136543273926,2,0.6719967034964129,0.01546299146303581,0.4255863750548824,0.6058528245672096,-0.5532487034797668,-0.8274238705635071,-0.0963626503944397,-27.24884033203125,-39.64553833007812,17.77261352539062,2
1596230192.764306,64,0,102524.9491961667,2.075956887896774,-1.393511163089854,0.9844971052203558,0.2902145087718964,0.5880791544914246,-0.2908509969711304,0.07099592685699463,0.01297318935394287,0.03392016887664795,2,0.6712601672141789,0.02493897375364373,0.4281233661559314,0.6045644281853929,-0.5446099042892456,-0.8329939246177673,-0.09757567197084427,-27.22756958007812,-39.72704315185547,17.81265258789062,2
1596230192.809052,65,0,102524.9792951667,2.089798085038512,-1.387652599408805,0.992671796709074,0.2756715416908264,0.5103631019592285,-0.1430357992649078,0.03044503927230835,-0.004382729530334473,0.01500284671783447,2,0.6701184796831862,0.03436086416305384,0.4318165677773225,0.6027395335833787,-0.5373152494430542,-0.8374890089035034,-0.09952110797166824,-27.17112731933594,-39.71958160400391,17.53863525390625,2
1596230192.824526,66,0,102525.0093931667,2.101444801829189,-1.383193027028343,0.9991778006531383,0.2289435416460037,0.4890859723091125,-0.2486871927976608,-0.02650284767150879,0.02187764644622803,0.04665619134902954,2,0.6691686819395181,0.0420034901084223,0.4348676062173102,0.601114914335678,-0.5315017104148865,-0.8410264849662781,-0.1008979603648186,-27.23179626464844,-40.02432250976562,17.53652954101562,2
1596230192.868665,67,0,102525.0394911667,2.11025531254418,-1.375468879475393,1.008593696897567,0.2026814669370651,0.5169619917869568,-0.2637704610824585,-0.03837978839874268,0.04757189750671387,0.08294248580932617,2,0.6676041380619666,0.05074812836960024,0.4372772266012237,0.6004314553586985,-0.5229146480560303,-0.8460830450057983,-0.1034586876630783,-27.3192138671875,-39.94611358642578,17.6505126953125,2
1596230192.884703,68,0,102525.0695891667,2.117932263354527,-1.36547036847257,1.017595696657591,0.1724608093500137,0.5940130949020386,-0.3122362792491913,-0.1039026975631714,0.01262116432189941,0.05005204677581787,2,0.6654929006255464,0.05963994230477843,0.4402165327462463,0.5998097438738959,-0.514376699924469,-0.8508472442626953,-0.1071245521306992,-27.20446014404297,-40.13969421386719,17.37353515625,2
1596230192.927131,69,0,102525.0996871667,2.120225424752929,-1.350156892203046,1.029851997286595,0.07341060787439346,0.524568498134613,-0.4466809630393982,0.0007666349411010742,0.01944899559020996,0.08733236789703369,2,0.6624307919937079,0.06954534220616132,0.4423098268935242,0.6005922567953885,-0.5024625062942505,-0.8572227954864502,-0.1126977801322937,-26.97482299804688,-40.12690734863281,17.3226318359375,2
1596230192.944916,70,0,102525.1297861667,2.11758560108439,-1.335475360808034,1.042599918834716,0.07043850421905518,0.3424172401428223,-0.3775647282600403,-0.001904428005218506,0.07725560665130615,-0.01823902130126953,2,0.6596894042385708,0.07783040985458245,0.4425273037960902,0.6024299273565396,-0.4900864064693451,-0.8637174367904663,-0.1175046339631081,-27.02157592773438,-40.61139678955078,16.86981201171875,2
1596230192.988611,71,0,102525.1598841667,2.123985148850502,-1.329546767751479,1.056485741961688,0.3763995170593262,0.4274100661277771,-0.5822697877883911,-0.1301778554916382,0.171040415763855,-0.299782395362854,2,0.6585463143897001,0.08689741749435098,0.4422089893970007,0.602674725191491,-0.4776884317398071,-0.8706320524215698,-0.1175311803817749,-26.52527618408203,-40.80677032470703,16.72265625,2
1596230193.005075,72,0,102525.1899821667,2.143540481859885,-1.329382936901341,1.081976148678112,0.590974748134613,0.7005556225776672,-0.7495948672294617,-0.1055319607257843,-0.01757258176803589,-0.06564760208129883,2,0.658242521086703,0.1028775054683079,0.4404090218984754,0.6018079283932205,-0.4559668898582458,-0.8828874826431274,-0.1122660040855408,-26.03777313232422,-40.92416381835938,16.70220947265625,2
1596230193.050644,73,0,102525.2200801667,2.170749539537745,-1.320964834301544,1.100403616779581,0.4812072813510895,1.478629112243652,-0.2743668258190155,-0.1015040278434753,-0.07992303371429443,0.2074877023696899,2,0.655195809805345,0.1211991461580789,0.4457217668945113,0.5977969941229067,-0.4391650855541229,-0.8913903832435608,-0.1120584383606911,-25.79422760009766,-41.0179443359375,16.67288208007812,2
1596230193.065378,74,0,102525.2501794167,2.192142098797023,-1.292225813797235,1.113325136812123,0.3796755373477936,1.658253073692322,-0.4842398166656494,-0.06558325886726379,0.1571230888366699,0.1129456758499146,2,0.6474858020925041,0.141545441382533,0.4575149339458742,0.5927959985119293,-0.4246537089347839,-0.8971722722053528,-0.121454045176506,-26.14373779296875,-41.30759429931641,16.48345947265625,2
1596230193.108465,75,0,102525.2802774167,2.209851454960732,-1.265971576878403,1.135369630156997,0.487896203994751,1.049407243728638,-0.70235675573349,0.0893494188785553,0.05518233776092529,0.02142804861068726,2,0.6403495833497701,0.1632673752698488,0.46447846439657,0.5895387499855915,-0.4023523032665253,-0.9066901206970215,-0.1265923529863358,-26.00540161132812,-41.36265563964844,15.80841064453125,2
1596230193.125558,76,0,102525.3103754167,2.21753905872793,-1.248733417561851,1.15519949078086,0.05406641960144043,0.595721960067749,-0.3829492628574371,0.2523601055145264,-0.2204112410545349,0.2776336669921875,2,0.6358731617502689,0.1782392964905168,0.4661640976150216,0.5887164631801747,-0.3829776644706726,-0.9148755073547363,-0.1277921497821808,-25.853759765625,-41.51859283447266,15.6630859375,2
1596230193.16792,77,0,102525.3404734167,2.201598689076192,-1.217752447133899,1.157087620139455,-0.2314819395542145,0.3703221082687378,0.007619176059961319,0.2229893207550049,0.02517193555831909,0.1645236015319824,2,0.6300798679685142,0.1830331450894036,0.4706910359961294,0.5898713086189884,-0.3772138953208923,-0.9156361818313599,-0.1389964520931244,-25.6929931640625,-41.76747131347656,15.23886108398438,2
1596230193.185707,78,0,102525.3705714167,2.187878936323518,-1.205030185444885,1.162236330742453,-0.1263584643602371,-0.2641285955905914,-0.5518672466278076,-0.08205276727676392,0.08032763004302979,0.02038729190826416,2,0.6284438115041221,0.1844189531080264,0.469047385424866,0.5924884624208254,-0.3710076510906219,-0.9176938533782959,-0.1420960575342178,-25.70687103271484,-41.83432769775391,14.79949951171875,2
1596230193.227815,79,0,102525.4006704167,2.15376885858333,-1.183179258167502,1.174083544686283,-0.3232437074184418,-0.2428874373435974,-0.2894163131713867,0.03558653593063354,-0.07787013053894043,0.03658497333526611,2,0.6267871418215796,0.1846988227123284,0.4620528910200589,0.5996093554615356,-0.3577233254909515,-0.9223361015319824,-0.146048441529274,-24.70707702636719,-42.31559753417969,14.702392578125,2
1596230193.245955,80,0,102525.4307684167,2.134643185774271,-1.167255875701597,1.175060554778132,-0.1335286647081375,0.1327052414417267,-0.1797895878553391,-0.08664470911026001,0.06269466876983643,-0.1431851387023926,2,0.6249049970562661,0.1838690253089666,0.4609814288196369,0.6026458221629367,-0.3545233905315399,-0.9227131605148315,-0.1513718515634537,-24.52696228027344,-42.51235198974609,14.70724487304688,2
1596230193.290249,81,0,102525.4608664167,2.114170625063323,-1.142297198213204,1.183939089742086,-0.08213317394256592,0.2226488441228867,-0.4008741080760956,0.1700518131256104,-0.01695787906646729,-0.03713560104370117,2,0.6213930666175457,0.188386913901121,0.4597854097076387,0.6057874346978918,-0.3431700766086578,-0.9260993599891663,-0.1567620486021042,-24.39012908935547,-42.8785400390625,14.13986206054688,2
1596230193.306026,82,0,102525.4909644167,2.107057858705447,-1.128736638953107,1.185423712914423,-0.04207278415560722,0.1541402786970139,0.1615983992815018,0.1141460239887238,-0.006991982460021973,-0.07010853290557861,2,0.6190066078744529,0.1908517184293462,0.4613682166479034,0.60625572190227,-0.3397700488567352,-0.9266584515571594,-0.1608128845691681,-24.05047607421875,-43.03907012939453,14.09039306640625,2
1596230193.351423,83,0,102525.5210624167,2.105914058584993,-1.12326321864631,1.185895791485797,0.04896700754761696,0.1989263892173767,-0.311300665140152,-0.1238911747932434,0.1044855713844299,-0.07816863059997559,2,0.6178726554409091,0.1923356058139208,0.4625653861191738,0.606031185254581,-0.3384902477264404,-0.9268357753753662,-0.1624807864427567,-24.08509826660156,-42.82730865478516,13.74444580078125,2
1596230193.36624,84,0,102525.5511614167,2.098621612937367,-1.111222451320033,1.194866800071975,-0.01378104276955128,0.217400535941124,-0.1181334033608437,0.1384004354476929,-0.08552813529968262,0.004099249839782715,2,0.6162089416257004,0.1971335428216004,0.4612396726771644,0.6071926969815402,-0.3290439248085022,-0.9301667809486389,-0.1628498136997223,-24.07792663574219,-43.11530303955078,13.89431762695312,2
1596230193.407687,85,0,102525.5812594167,2.102846112731068,-1.109071284882406,1.191551032789961,0.06655323505401611,0.09880838543176651,0.2121267318725586,0.03740176558494568,0.03640198707580566,-0.08563506603240967,2,0.6151404341242879,0.1978311136625932,0.4642289586764308,0.6057693510744149,-0.331451952457428,-0.9289442896842957,-0.1649301946163177,-23.88212585449219,-43.2298583984375,13.81045532226562,2
1596230193.42644,86,0,102525.6113574167,2.108478109393763,-1.116188906522047,1.194144995926059,0.1280059367418289,-0.05899824574589729,-0.2916410565376282,-0.1122022271156311,0.1010773181915283,-0.02555012702941895,2,0.6163492652492998,0.1983920814691637,0.4629249451672779,0.6053550085622692,-0.3304516077041626,-0.9299015402793884,-0.1615083366632462,-23.92755126953125,-43.04214477539062,14.00927734375,2
1596230193.468796,87,0,102525.6414554167,2.109696244999291,-1.115825358770753,1.199489166411674,-0.00899631530046463,0.08969998359680176,0.09969665855169296,0.1430355906486511,-0.08352828025817871,0.2035112380981445,2,0.6163749777069187,0.2008997785228988,0.4617181176816469,0.6054234448866846,-0.3259241282939911,-0.9318538308143616,-0.1594423353672028,-23.67385864257812,-43.13539123535156,14.07302856445312,2
1596230193.486662,88,0,102525.6715534167,2.110007494735532,-1.114126010381147,1.192763104799747,-0.1167284101247787,-0.03101030737161636,0.1515375971794128,0.06849855184555054,-0.04265749454498291,0.07977926731109619,2,0.6156583920464822,0.1989640652837221,0.464458696947357,0.6046950596360245,-0.3312706053256989,-0.9293923377990723,-0.162756085395813,-24.16735076904297,-43.27817535400391,13.9185791015625,2
1596230193.529466,89,0,102525.7016524167,2.103132530122071,-1.115042821676836,1.191166909170086,-0.09912820905447006,-0.4158731698989868,-0.07586862146854401,0.02985337376594543,0.06938457489013672,-0.09657919406890869,2,0.6164782505668854,0.1959644265396426,0.4625981752098781,0.6062634451909903,-0.3327513039112091,-0.9288020133972168,-0.1631050258874893,-24.12105560302734,-42.96788024902344,13.626708984375,2
1596230193.546909,90,0,102525.7317504167,2.098812680614202,-1.122014005156058,1.191120937312532,0.01035567373037338,-0.2012740522623062,0.05284061655402184,-0.0742490291595459,-0.006270468235015869,0.0499187707901001,2,0.6185021127067574,0.1924971839815687,0.4591490756446517,0.6079325904503631,-0.3339187204837799,-0.928784966468811,-0.1607999354600906,-23.84934234619141,-43.06626129150391,14.11602783203125,2
1596230193.588158,91,0,102525.7618484167,2.103055260957598,-1.122985777977736,1.189482995676604,0.02173875831067562,0.3224729299545288,0.07413118332624435,-0.05179658532142639,0.01500910520553589,0.007777214050292969,2,0.6182433842974983,0.1928940019466926,0.4606540614128624,0.6069307829620749,-0.3354460299015045,-0.9281767010688782,-0.1611340492963791,-23.87929534912109,-43.10762023925781,14.14987182617188,2
1596230193.607003,92,0,102525.7919464167,2.109858848802212,-1.120998491583522,1.188607740514061,0.1119753122329712,0.1245702058076859,0.0369061715900898,0.0526842474937439,0.05650293827056885,-0.11087965965271,2,0.61708543924842,0.1952661543496096,0.4636050064894121,0.6051008820315014,-0.3358563482761383,-0.927850604057312,-0.1621533781290054,-24.28749847412109,-43.07182312011719,14.00497436523438,2
1596230193.649937,93,0,102525.8220454167,2.117771068677284,-1.12967067941878,1.188904158359599,0.0484655536711216,-0.1521402299404144,0.04237398877739906,0.05816277861595154,-0.03469383716583252,-0.03125405311584473,2,0.6183349951919646,0.1952004320599939,0.4632251337362972,0.6041366272802049,-0.3370011746883392,-0.9279611110687256,-0.1591172516345978,-24.26419067382812,-43.03751373291016,13.99887084960938,2
1596230193.667319,94,0,102525.8521434167,2.123861220904648,-1.138312783797992,1.186235446747615,0.01088726706802845,-0.05080435425043106,0.1668587177991867,0.07907894253730774,0.01205480098724365,0.0411345362663269,2,0.6196390257766842,0.1934666406565307,0.4632285146092726,0.6033550975343362,-0.3406107723712921,-0.9269632697105408,-0.1572362780570984,-24.1793212890625,-42.96744537353516,14.06936645507812,2
1596230193.706355,95,0,102525.8822414167,2.130542428465721,-1.144390860348253,1.182651523304386,0.07653991132974625,0.001772467046976089,0.09832161664962769,-0.01211011409759521,0.02673792839050293,0.01273083686828613,2,0.6202688457439884,0.1923496633732444,0.4644840360329924,0.602098671566198,-0.3445830047130585,-0.9256128072738647,-0.1565363258123398,-24.35798645019531,-42.93611145019531,14.28076171875,2
1596230193.727603,96,0,102525.9123394167,2.134614601708073,-1.149147608782228,1.180106955284865,-0.007176052778959274,-0.03120189532637596,0.1545255780220032,0.006808876991271973,-0.03175187110900879,0.03302538394927979,2,0.6208911208610501,0.1912190780620942,0.4650315225616633,0.6013944522018553,-0.3474717140197754,-0.9246467351913452,-0.155858963727951,-24.55657196044922,-42.62440490722656,14.166748046875,2
1596230193.768888,97,0,102525.9424374167,2.140093171837279,-1.154348903407157,1.176068176498429,-0.01751778647303581,0.03347741812467575,0.1226831376552582,-0.0529569685459137,0.03267586231231689,0.01523458957672119,2,0.6214380694721025,0.1898296915936043,0.466326699792499,0.6002656336092489,-0.3516898453235626,-0.9231011271476746,-0.1555588245391846,-24.72391510009766,-42.56935119628906,14.28134155273438,2
1596230193.787617,98,0,102525.9725354167,2.140851348309484,-1.154381550136467,1.174143359777936,-0.003525208681821823,0.07282736897468567,0.01466592773795128,-0.1251886785030365,0.06633245944976807,0.03148448467254639,2,0.6213070665966824,0.1893268399476411,0.4671460352248802,0.5999228909904668,-0.3533192574977875,-0.9223592281341553,-0.1562657505273819,-24.91813659667969,-42.40984344482422,14.10546875,2
1596230193.82877,99,0,102526.0026344167,2.142532202245421,-1.151282654715624,1.174203496017128,0.00085444375872612,0.2352300584316254,0.02519555017352104,-0.06338503956794739,-0.01860511302947998,0.01282596588134766,2,0.6204244801089761,0.1908003804080378,0.4685932044094177,0.5992404877202275,-0.3527827560901642,-0.9223824739456177,-0.1573373526334763,-24.92540740966797,-42.50265502929688,13.90948486328125,2
1596230193.847845,100,0,102526.0327324167,2.143768716311484,-1.144545324493421,1.17227855447863,0.005474820267409086,0.2348472774028778,0.05499029904603958,0.03203397989273071,0.02171611785888672,0.02873128652572632,2,0.6186540491757619,0.1924708374581263,0.4716513966768041,0.5981363178879184,-0.3533304929733276,-0.9216371774673462,-0.1604442894458771,-25.02297973632812,-42.37505340576172,13.9090576171875,2
1596230193.890044,101,0,102526.0628304167,2.144484334400457,-1.14047048452247,1.171758198266394,-0.01904594525694847,0.1205510869622231,-0.02794594690203667,-0.05501213669776917,0.02054989337921143,-0.005572676658630371,2,0.6176034205850693,0.1937125610349082,0.4732872373489676,0.5975288898615503,-0.3531099259853363,-0.9214351177215576,-0.1620829105377197,-25.12005615234375,-42.54154205322266,13.87875366210938,2
1596230193.908023,102,0,102526.0929284167,2.144249288268275,-1.135180272964087,1.171750748775043,-0.01599112153053284,0.2176383286714554,0.01974755153059959,0.02233657240867615,0.003411531448364258,-0.01034712791442871,2,0.6163720475337751,0.195217223806313,0.4748512542225095,0.5970695456334389,-0.3522535562515259,-0.9214322566986084,-0.1639514714479446,-25.1627197265625,-42.50994873046875,13.68695068359375,2
1596230193.948286,103,0,102526.1230264167,2.143638021149262,-1.129421056538925,1.170661548688404,-0.0242743194103241,0.1604248136281967,0.03898691758513451,0.07659938931465149,-0.002403974533081055,0.03825247287750244,2,0.6150202463604474,0.1963339992439911,0.4767813998848713,0.5965589807034476,-0.3522108197212219,-0.9210085272789001,-0.1664061099290848,-25.33225250244141,-42.41275024414062,13.45693969726562,2
1596230193.968255,104,0,102526.1531254167,2.142750822900012,-1.111671198447135,1.16617458821275,0.02676024660468102,0.1989675462245941,0.2057168930768967,0.1557155251502991,-0.01759731769561768,0.01458638906478882,2,0.6106659031934496,0.1996415281216311,0.4833524480453474,0.5946434269603694,-0.3529026806354523,-0.9192513823509216,-0.1744608283042908,-25.67244720458984,-42.47672271728516,13.20281982421875,2
1596230194.006234,105,0,102526.1832234167,2.147358113879236,-1.118995646995928,1.164852930827149,0.007293162401765585,-0.07720902562141418,-0.02095114253461361,-0.1042814254760742,0.06602656841278076,0.003283321857452393,2,0.6119220781071253,0.1983696146320159,0.482893749753131,0.5941503047808916,-0.3552639484405518,-0.9187302589416504,-0.1724017262458801,-25.86553955078125,-42.36324310302734,13.08331298828125,2
1596230194.028358,106,0,102526.2133214167,2.151239464516663,-1.116829212592258,1.163451245294616,-0.01555653940886259,0.2815599739551544,0.1411710530519485,0.07453590631484985,-0.002498030662536621,0.009670495986938477,2,0.6109549744940284,0.1996654393377633,0.4851428563200917,0.5928778484465649,-0.3560464382171631,-0.9181758761405945,-0.1737354695796967,-25.93698883056641,-42.27134704589844,13.13946533203125,2
1596230194.069426,107,0,102526.243419375,2.157483727086443,-1.116383805723149,1.160152417001962,0.06186587736010551,0.1284685581922531,0.09354102611541748,0.01872709393501282,0.01910609006881714,-0.02094173431396484,2,0.6100901263548568,0.2004462236859,0.4881492970219895,0.5910344773149416,-0.3586888611316681,-0.9168639779090881,-0.1752226948738098,-26.14610290527344,-42.11061096191406,12.97976684570312,2
1596230194.088621,108,0,102526.273517375,2.15941925075905,-1.117501339907555,1.159021019025981,-0.0392305999994278,-0.07924966514110565,0.01565487869083881,-0.004055798053741455,0.01280379295349121,0.02685654163360596,2,0.6101245153441801,0.2002753718928267,0.4887299882424173,0.5905766325351112,-0.3598163723945618,-0.9164116978645325,-0.1752756983041763,-26.13574981689453,-42.0849609375,12.80877685546875,2
1596230194.127003,109,0,102526.303615375,2.157773760283684,-1.118903978782743,1.158321985491324,-0.01078464090824127,-0.03943288326263428,0.01816030591726303,-0.0233796238899231,0.02262115478515625,0.002412974834442139,2,0.6106037630365282,0.1990922540069798,0.4880321926282122,0.5910583147407213,-0.3606383204460144,-0.9161317348480225,-0.1750506311655045,-26.42472076416016,-42.26425933837891,12.84735107421875,2
1596230194.148874,110,0,102526.333714375,2.157112520203113,-1.118215115279849,1.156898559327263,-0.04176275432109833,-0.01327629946172237,0.05171173810958862,-0.0289665162563324,-0.005072832107543945,0.02974683046340942,2,0.6104447901740954,0.1985513030568578,0.4884872468195031,0.5910285634484503,-0.3616900146007538,-0.9155601859092712,-0.1758690774440765,-26.17838287353516,-42.22551727294922,12.92459106445312,2
1596230194.18781,111,0,102526.363812375,2.156600249514774,-1.119984264278076,1.154897367767609,-0.0239760335534811,-0.1104971244931221,0.05292294174432755,-0.01762720942497253,0.03698676824569702,-0.009903430938720703,2,0.6108474609491328,0.1971089333941127,0.4884142619475312,0.5911556626383576,-0.3636491000652313,-0.9147534966468811,-0.1760268956422806,-26.39509582519531,-41.89658355712891,12.89846801757812,2
1596230194.208991,112,0,102526.393910375,2.157182266628247,-1.122071512700022,1.153532841276338,0.009163636714220047,0.03126469999551773,0.02919896133244038,-0.01730656623840332,0.01706361770629883,-0.0276108980178833,2,0.6112454202012181,0.1961496005435303,0.4883700155299376,0.591099885298825,-0.3651398718357086,-0.9142013788223267,-0.1758087426424026,-26.29594421386719,-42.17125701904297,12.77871704101562,2
1596230194.250084,113,0,102526.424008375,2.158443997014703,-1.122757813617231,1.15322131897422,0.00031249038875103,-0.007711214944720268,-0.003518650773912668,-0.01616117358207703,0.01396036148071289,-0.007094979286193848,2,0.6112769184055151,0.1962136538638143,0.4886292717095999,0.590831732052734,-0.3655170798301697,-0.9140750765800476,-0.1756814569234848,-26.30799865722656,-42.24311828613281,12.72348022460938,2
1596230194.269278,114,0,102526.454106375,2.159564720651074,-1.124611068316366,1.153356639484389,0.01731561869382858,-0.03051922470331192,0.01583987660706043,-0.02464243769645691,0.009087324142456055,-0.011910080909729,2,0.6116249749556739,0.1960604305938258,0.488351970689147,0.5907516656247109,-0.3657304644584656,-0.914129912853241,-0.1749503910541534,-26.38710021972656,-42.06100463867188,12.86273193359375,2
1596230194.30775,115,0,102526.484204375,2.161342137465808,-1.125671214130788,1.153543248698779,0.04281191527843475,0.05519252642989159,-0.01706717908382416,-0.0128612220287323,0.01914322376251221,-0.005388915538787842,2,0.6117167157525372,0.1963620014680041,0.488495144422685,0.5904381824125671,-0.3657620549201965,-0.9142055511474609,-0.1744892448186874,-26.46240997314453,-42.16206359863281,12.84783935546875,2
1596230194.329518,116,0,102526.514303375,2.164850179622824,-1.127561293936536,1.154620482201916,0.04919203743338585,0.008760666474699974,0.003462386317551136,0.009885579347610474,0.02014994621276855,-0.02156364917755127,2,0.611874083297921,0.197288195268449,0.4886192805355916,0.5898631654151205,-0.3652008771896362,-0.9146416187286377,-0.1733749508857727,-26.45017242431641,-42.11127471923828,12.89559936523438,2
1596230194.368277,117,0,102526.544401375,2.167829358410001,-1.131665881631115,1.154672950063738,0.04832026362419128,-0.06271091848611832,0.02076157182455063,-0.009093493223190308,0.01872193813323975,0.01965010166168213,2,0.6125847207628484,0.1970098712647718,0.4882250851477112,0.5895449740657954,-0.365866094827652,-0.9146628379821777,-0.1718541383743286,-26.52581024169922,-42.19242095947266,13.08511352539062,2
1596230194.389598,118,0,102526.574499375,2.171182650700722,-1.13753475167986,1.15471481072728,0.01835016533732414,-0.1175664067268372,-0.01916150934994221,0.002797096967697144,-0.01049709320068359,0.009443879127502441,2,0.6136879158251274,0.1963241787968903,0.4874012380741631,0.5893080299657815,-0.3668336570262909,-0.9146797060966492,-0.1696879118680954,-26.46368408203125,-41.99993133544922,13.24212646484375,2
1596230194.428012,119,0,102526.604597375,2.168626859662045,-1.138067890712015,1.155113320191998,-0.07942227274179459,-0.05744457989931107,-0.006297421175986528,0.01489785313606262,0.01807773113250732,0.03884565830230713,2,0.6140819258501492,0.1955341440793335,0.4863611826970576,0.5900192303608576,-0.3665934205055237,-0.9148406982421875,-0.1693395674228668,-26.46702575683594,-42.15858459472656,13.22689819335938,2
