loggingTime,loggingSample,identifierForVendor,motionTimestamp_sinceReboot,motionYaw,motionRoll,motionPitch,motionRotationRateX,motionRotationRateY,motionRotationRateZ,motionUserAccelerationX,motionUserAccelerationY,motionUserAccelerationZ,motionAttitudeReferenceFrame,motionQuaternionX,motionQuaternionY,motionQuaternionZ,motionQuaternionW,motionGravityX,motionGravityY,motionGravityZ,motionMagneticFieldX,motionMagneticFieldY,motionMagneticFieldZ,motionMagneticFieldCalibrationAccuracy
1596230011.02751,1,0,102343.2116772917,-0.7715815281123876,0.7855100879115607,1.375285361833416,0.06791803985834122,-0.05670157819986343,0.001680443063378334,0.008351266384124756,0.04402613639831543,-0.0577545166015625,2,0.6545805851247981,0.05336536532642563,-0.04356348809967925,0.7528470282249994,0.1373835355043411,-0.9809485077857971,-0.1373527944087982,-9.659828186035156,-48.75224304199219,11.22406005859375,2
1596230011.063956,2,0,102343.2417752917,-0.7635700041911104,0.7760640858653782,1.376387200767308,-0.06333565711975098,-0.0006727678701281548,0.0798746794462204,-0.005749881267547607,-0.0234915018081665,0.03580564260482788,2,0.6544790544495507,0.05216031875381877,-0.04336743247960667,0.7530310568303168,0.1353228390216827,-0.9811620116233826,-0.1378729343414307,-9.635101318359375,-48.74348449707031,11.361083984375,2
1596230011.087649,3,0,102343.2718732917,-0.7570135759220908,0.7702855036553187,1.37702222430907,0.07300756126642227,0.04412029311060905,-0.001299223862588406,-0.003463298082351685,0.04055178165435791,-0.01221227645874023,2,0.654366628783365,0.05197496348293956,-0.04263438061907115,0.7531835118308663,0.1340904086828232,-0.981284499168396,-0.1382058411836624,-9.752029418945312,-48.53466033935547,11.21533203125,2
1596230011.128355,4,0,102343.3019712917,-0.7640136210394244,0.7759975805743455,1.378616099216036,0.05796161666512489,-0.09977073967456818,0.03274808824062347,0.01477897167205811,-0.006409645080566406,0.004416108131408691,2,0.6551283893263878,0.051444465900855,-0.04300966752396823,0.7525359768868355,0.1337813287973404,-0.9815901517868042,-0.1363205164670944,-9.778587341308594,-48.58364868164062,11.3087158203125,2
1596230011.147845,5,0,102343.3320682917,-0.7608316180630806,0.7696536312054181,1.380977673830868,0.03180073946714401,-0.09774836152791977,0.08128003031015396,-0.02624040842056274,0.004588067531585693,0.01544284820556641,2,0.6555886351225877,0.04952398605907124,-0.04331397810257204,0.7522465894191698,0.1313008069992065,-0.9820384383201599,-0.1355018317699432,-9.951202392578125,-48.55815887451172,11.27474975585938,2
1596230011.188641,6,0,102343.3621662917,-0.7533576676554397,0.7626605067773902,1.382488920294644,-0.04004868119955063,0.1116061881184578,0.06199901551008224,-0.02706015110015869,0.01003366708755493,0.01454943418502808,2,0.655690230620436,0.04897684459121271,-0.0424279032907986,0.7522442864236074,0.1293242275714874,-0.9823225140571594,-0.1353431791067123,-9.817771911621094,-48.76851654052734,11.55343627929688,2
1596230011.208068,7,0,102343.3922642917,-0.7433243797965554,0.7576618563802853,1.38294119234594,0.02316783741116524,0.1877350509166718,0.04756894335150719,-0.008806437253952026,0.009249091148376465,-0.0131075382232666,2,0.6554687408679611,0.05027660458572447,-0.04018326151142071,0.7524749445025232,0.1283415108919144,-0.9824070334434509,-0.1356659829616547,-10.14121246337891,-48.69620513916016,11.41555786132812,2
1596230011.251758,8,0,102343.4223622917,-0.7448796797455042,0.7647234491195856,1.384503658815535,0.0180194266140461,0.1630444824695587,-0.01944265887141228,-0.04998651146888733,0.02034711837768555,-0.002564728260040283,2,0.656100026780027,0.05204670553782464,-0.03807609873405543,0.7519136399857769,0.1282327175140381,-0.9826976656913757,-0.1336477845907211,-10.15780639648438,-48.65251159667969,11.38626098632812,2
1596230011.268299,9,0,102343.4524592917,-0.750587628822794,0.7735472596688036,1.384048921644982,0.0329100675880909,0.0145588256418705,-0.02013380825519562,0.001302272081375122,0.008451104164123535,-0.008946418762207031,2,0.656286124870187,0.05360078356922868,-0.0374369535772332,0.7516741431191888,0.1297193467617035,-0.9826133251190186,-0.1328309625387192,-10.12599182128906,-48.85087585449219,11.25067138671875,2
1596230011.309781,10,0,102343.4825572917,-0.7594111285736391,0.7820008794182532,1.385700112622367,0.135227233171463,-0.06748455762863159,-0.005728903692215681,0.09451374411582947,-0.004880666732788086,-0.001693308353424072,2,0.6571539678026312,0.05347643185074819,-0.03757175881038477,0.7509175957015838,0.1296936422586441,-0.9829185605049133,-0.1305778622627258,-10.09788513183594,-48.72200775146484,11.39065551757812,2
1596230011.328478,11,0,102343.5126552917,-0.7994877329939649,0.8149554621378874,1.389013581516113,0.3119124174118042,-0.3262427747249603,-0.2301413416862488,-0.03243383765220642,0.05144190788269043,-0.03317135572433472,2,0.6597849383961867,0.05180871758938801,-0.04091663713709165,0.7485489474885767,0.1315550804138184,-0.9835229516029358,-0.1239993870258331,-10.05813598632812,-48.78536987304688,11.81356811523438,2
1596230011.37386,12,0,102343.5427532917,-0.8440229207198003,0.8420693754413398,1.386800573415682,-0.06670599430799484,-0.589333713054657,0.06085117906332016,0.07610321044921875,0.06672024726867676,-0.1095973253250122,2,0.6609048355490376,0.04781669727801871,-0.04919222009805302,0.7473276396940571,0.1364922374486923,-0.9831205010414124,-0.1218367218971252,-9.87298583984375,-48.72447204589844,12.054931640625,2
1596230011.388698,13,0,102343.5728502917,-0.8172368507978371,0.8117042300772612,1.393948476022861,0.1721117496490479,0.3306232094764709,0.2617112994194031,-0.1477786004543304,-0.143664538860321,-0.08991295099258423,2,0.6614891697841706,0.04347089872972598,-0.04736776179833529,0.7471939190680356,0.1276289075613022,-0.984403133392334,-0.1210847198963165,-9.601318359375,-48.50653839111328,12.23773193359375,2
1596230011.428351,14,0,102343.6029482917,-0.8504155401352846,0.8567071892057362,1.397202370489622,0.273632287979126,0.3699254989624023,-0.3443134129047394,-0.297580361366272,0.2037423849105835,-0.02292466163635254,2,0.6641500475637855,0.04841176344484885,-0.04397965267225656,0.7447327887751665,0.1305258274078369,-0.9849703907966614,-0.1131220310926437,-9.853157043457031,-48.59866333007812,12.51235961914062,2
1596230011.448755,15,0,102343.6330462917,-0.9268318291455107,0.9399062777968815,1.394123896771815,0.2521107792854309,0.1591290831565857,-0.2421480417251587,0.01699542999267578,-0.01751935482025146,-0.002091586589813232,2,0.667209186266141,0.05473654417516757,-0.04552762831486046,0.7414601362335432,0.1419228315353394,-0.9844339489936829,-0.1036716252565384,-9.598457336425781,-48.52021789550781,12.8829345703125,2
1596230011.489508,16,0,102343.6631442917,-0.9550609034232503,0.9713196614069808,1.395093142957607,0.1238969638943672,0.0943886786699295,0.001340590650215745,-0.03180605173110962,-0.02805882692337036,0.005350887775421143,2,0.6689374276829204,0.05666242440332259,-0.04521020770350459,0.7397756983114642,0.1443205624818802,-0.9846038818359375,-0.09862417727708817,-9.136154174804688,-48.30337524414062,13.1793212890625,2
1596230011.509033,17,0,102343.6932412917,-1.015246894175718,1.038466112681865,1.39510125931448,0.4331991672515869,0.4599353671073914,-0.3661985993385315,-0.09667888283729553,0.08963334560394287,-0.05594545602798462,2,0.6722272260864227,0.06126186480500881,-0.04490708411804262,0.7364380890495057,0.1506066769361496,-0.9846053123474121,-0.0887150838971138,-9.388038635253906,-48.46530151367188,13.19927978515625,2
1596230011.551641,18,0,102343.7233392917,-1.093310475977886,1.133732381631463,1.392373033519131,0.2631222605705261,0.6089468598365784,-0.1373132020235062,0.09755456447601318,-0.006571769714355469,0.06097137928009033,2,0.6763367303439136,0.07075965981988599,-0.04229266627079026,0.7319652562244249,0.1607953906059265,-0.9841247200965881,-0.07512339204549789,-9.152244567871094,-48.35013580322266,13.64996337890625,2
1596230011.56933,19,0,102343.7534372917,-1.137048945626497,1.189984483608465,1.395095404696071,0.3670353293418884,0.2702501118183136,0.03860772773623466,0.1134936511516571,-0.003202140331268311,-0.02330994606018066,2,0.6795582749227205,0.07560654105847611,-0.03832417852116043,0.7287082024320087,0.1622772365808487,-0.9846042394638062,-0.06496840715408325,-9.366355895996094,-48.10311889648438,13.91217041015625,2
1596230011.611871,20,0,102343.7835352917,-1.197069029776306,1.251924799986727,1.399599218413282,0.1982555091381073,-0.10886000841856,0.01923709362745285,0.01114371418952942,0.04214125871658325,0.08106279373168945,2,0.6837337388104887,0.07618575919328685,-0.03754374063754984,0.7247719921177228,0.1617744565010071,-0.985381543636322,-0.05340781062841415,-9.434654235839844,-48.10054016113281,14.62615966796875,2
1596230011.62947,21,0,102343.8136322917,-1.200720276309217,1.256077390734849,1.400396671426682,0.1048064231872559,0.2783479988574982,-0.0218980684876442,-0.114115446805954,-0.05943644046783447,0.004161238670349121,2,0.6840693250851974,0.07617785493648827,-0.03718142863970081,0.7244747280529075,0.1612472087144852,-0.9855170845985413,-0.05249218642711639,-9.471168518066406,-48.02352905273438,14.58236694335938,2
1596230011.667893,22,0,102343.8437302917,-1.257054730275247,1.322999246452244,1.399284070412505,0.2624188661575317,0.2918866574764252,-0.2040306329727173,-0.04382970929145813,0.04660344123840332,0.04224532842636108,2,0.6873432957725146,0.08141786369923804,-0.03496782039804341,0.7209074486570166,0.1654592752456665,-0.9853277802467346,-0.04186065122485161,-9.047691345214844,-47.79444885253906,14.8436279296875,2
1596230011.689991,23,0,102343.8738282917,-1.275952314783161,1.344748329874109,1.395862855786636,0.1063742712140083,0.03686116263270378,-0.01702169887721539,0.05249816179275513,-0.04566895961761475,-0.005079388618469238,2,0.6880805377175145,0.08391186000318993,-0.03546125780275811,0.7198934614917151,0.1696155965328217,-0.9847381114959717,-0.03900794684886932,-9.221778869628906,-47.75460815429688,15.0517578125,2
1596230011.728229,24,0,102343.9039262917,-1.31654212792257,1.393664283721337,1.398585023114025,0.2511973977088928,0.4718253016471863,0.04201364517211914,-0.07806962728500366,0.05952876806259155,0.1690183877944946,2,0.6909483625183271,0.08656078351884225,-0.0322426881023502,0.716978433131457,0.1686804890632629,-0.98520827293396,-0.03019518218934536,-9.391815185546875,-47.71832275390625,15.34939575195312,2
1596230011.749821,25,0,102343.9340232917,-1.336427828084974,1.424652795600009,1.395492605271538,-0.03902482986450195,0.3022829294204712,-0.3497296571731567,-0.1466556787490845,-0.01286667585372925,0.02749866247177124,2,0.6920011113459408,0.09184528215886081,-0.02972045144607938,0.7154128536514563,0.1725477576255798,-0.9846736192703247,-0.02539781294763088,-9.295440673828125,-47.57022094726562,15.4605712890625,2
1596230011.787491,26,0,102343.9641212917,-1.368642503617915,1.462649029946621,1.383977518067627,0.4039482474327087,0.06963595747947693,-0.271267831325531,0.07542447745800018,0.01693803071975708,-0.1838104128837585,2,0.6930547056060147,0.09824156656871311,-0.0320830707900161,0.7134385177074845,0.1846492886543274,-0.9826000332832336,-0.02004753984510899,-8.949790954589844,-47.76792907714844,15.5701904296875,2
1596230011.8103,27,0,102343.9942192917,-1.444082092859881,1.534943898076572,1.383273384376255,0.424569696187973,-0.1901131868362427,0.03771005198359489,0.1947011053562164,0.1117148399353027,-0.1349622011184692,2,0.6978992426483525,0.09795632389262779,-0.03401153520405059,0.7086498062841984,0.1863067150115967,-0.9824690222740173,-0.006682411301881075,-8.793708801269531,-47.73493194580078,15.74130249023438,2
1596230011.848034,28,0,102344.0243172917,-1.483500295690621,1.562399285449471,1.384247459491267,0.07965143024921417,-0.6152941584587097,0.03410047292709351,-0.0341334342956543,-0.09819984436035156,0.02093088626861572,2,0.7003353576844898,0.09355053145865377,-0.03801744138566826,0.7066352253804531,0.1854621171951294,-0.9826501607894897,-0.001557369716465473,-8.663322448730469,-47.31321716308594,16.45440673828125,2
1596230011.870095,29,0,102344.0544142917,-1.508472911974687,1.569631150366513,1.382140330157997,0.2890181243419647,-0.2930126786231995,-0.2090975046157837,-0.1591472923755646,0.06972134113311768,-0.009478569030761719,2,0.701520331898936,0.08809067010201921,-0.04504422583546869,0.7057479891620198,0.1875385046005249,-0.9822571873664856,-0.0002185155462939292,-8.488716125488281,-47.252197265625,16.82119750976562,2
1596230011.906558,30,0,102344.084513,-1.556065867839824,1.618651304297142,1.374802975430404,0.2703765332698822,0.3036078214645386,-0.2450603097677231,-0.1980055272579193,0.06933736801147461,0.1424344778060913,2,0.7045154351022069,0.0911915803653727,-0.0471565053024719,0.7022239758657811,0.1945188045501709,-0.9808546900749207,0.00931580550968647,-7.807571411132812,-47.33702087402344,17.179931640625,2
1596230011.930388,31,0,102344.114611,-1.593033657534928,1.666814814578079,1.364096083677277,0.2298184335231781,0.4295697808265686,-0.3911372125148773,0.01005218923091888,0.001325905323028564,0.09815192222595215,2,0.7071660559933797,0.09876258551095621,-0.04688157680408081,0.6985443793426775,0.2042862176895142,-0.9787134528160095,0.01967575773596764,-7.873420715332031,-47.21961212158203,17.2080078125,2
1596230011.967061,32,0,102344.144709,-1.596606991910404,1.677461577777845,1.355066211379012,-0.05460457876324654,0.08275830745697021,-0.1824593096971512,0.1325589120388031,-0.06271147727966309,-0.01189136505126953,2,0.7074614508178158,0.1043699380179173,-0.04754486989170839,0.6973842000036627,0.2128442227840424,-0.9768203496932983,0.02278957702219486,-7.54998779296875,-47.24187469482422,17.69229125976562,2
1596230011.990604,33,0,102344.174806,-1.581423675388332,1.661797430472739,1.352135023716947,-0.1573044955730438,-0.06005879864096642,-0.08668158203363419,0.03482167422771454,-0.02349585294723511,-0.0298607349395752,2,0.7062362537240864,0.1052941955236847,-0.04881589980159259,0.6983985703832319,0.2160257548093796,-0.9761887192726135,0.0197130274027586,-7.282829284667969,-47.07309722900391,17.63491821289062,2
1596230012.028329,34,0,102344.204904,-1.56775138841961,1.650560699112712,1.347484206083427,0.02189967222511768,0.2229301035404205,-0.2378657758235931,-0.02612487971782684,0.07215118408203125,0.03526759147644043,2,0.7051229137996678,0.1078176076463254,-0.04964383536076813,0.6990797170016968,0.2207562178373337,-0.97516930103302,0.01764591969549656,-7.144729614257812,-47.27320861816406,17.67901611328125,2
1596230012.050783,35,0,102344.235002,-1.568986676723776,1.659395222903505,1.341540161898819,-0.07387106865644455,0.1629986017942429,-0.1109721511602402,0.02904579043388367,-0.04568624496459961,0.02050447463989258,2,0.7052572315082127,0.1125445735354998,-0.04905723975448234,0.6982402388573902,0.2263622432947159,-0.9738357067108154,0.02010808698832989,-6.845634460449219,-47.31465148925781,17.48178100585938,2
1596230012.089796,36,0,102344.2651,-1.543475852079985,1.637916298402705,1.339421962330505,-0.2688136100769043,0.02849339880049229,-0.1177069321274757,-0.08485947549343109,-0.01857292652130127,0.08239424228668213,2,0.7032214535100535,0.1147591107958404,-0.04845065040049223,0.6999732826194111,0.2287997007369995,-0.9733521342277527,0.01538013201206923,-6.772903442382812,-47.35169219970703,17.18368530273438,2
1596230012.11102,37,0,102344.295197,-1.506854598385692,1.607169351982292,1.332068855461942,-0.2930679321289062,0.2695902585983276,-0.3775752186775208,-0.1168095469474792,0.07728672027587891,0.1429774761199951,2,0.700031804852335,0.1193944771633259,-0.04899547604988946,0.7023532669483484,0.2363109886646271,-0.9716396927833557,0.008599137887358665,-6.706192016601562,-47.69984436035156,16.9554443359375,2
1596230012.153658,38,0,102344.325295,-1.451098937892802,1.554999824557753,1.320041859230091,-0.6993991136550903,-0.2027608007192612,-0.4352128803730011,-0.1955639123916626,-0.08136743307113647,0.1806738376617432,2,0.6946241133021612,0.124649879312184,-0.05179033115560472,0.7065956867610668,0.2481037527322769,-0.9687255024909973,-0.003919497597962618,-6.352127075195312,-47.5498046875,16.59002685546875,2
1596230012.171192,39,0,102344.355393,-1.36513324640229,1.464860616657667,1.300229667806629,-0.6959430575370789,-0.0765235498547554,-0.7916556596755981,-0.068259596824646,0.05669188499450684,0.14174485206604,2,0.6849768784986219,0.1291355878700041,-0.05929095361890352,0.7145735651113823,0.2657796144485474,-0.963619589805603,-0.02826135233044624,-5.41387939453125,-48.15342712402344,15.3427734375,2
1596230012.208436,40,0,102344.385491,-1.295618255666376,1.394739311739258,1.273718768223026,-0.9293040037155151,-0.3127467632293701,-0.7173990607261658,0.08418729901313782,-0.01888525485992432,0.1677032113075256,2,0.6750513503250938,0.1366392415029525,-0.06735023658595096,0.7218720611439225,0.2882018387317657,-0.9561960697174072,-0.05127078294754028,-4.611335754394531,-48.33269500732422,14.68856811523438,2
1596230012.231694,41,0,102344.415588,-1.198742471304838,1.286389923098209,1.245778655859111,-1.375193238258362,-0.6685587763786316,-0.6497279405593872,0.114107221364975,-0.08954715728759766,0.2593569159507751,2,0.660239513578648,0.1388682688777218,-0.07772830048093293,0.7340011108919653,0.3064975142478943,-0.9476450681686401,-0.08959877490997314,-3.086509704589844,-49.00169372558594,12.70510864257812,2
1596230012.273532,42,0,102344.445686,-1.101240442323727,1.177339536477471,1.215757563343743,-1.237540721893311,-0.3492741286754608,-0.4740124046802521,0.08962434530258179,0.03151601552963257,0.1725932359695435,2,0.6432663185709504,0.1398972017314407,-0.08694544205420623,0.7477150867646617,0.3210646510124207,-0.9376330375671387,-0.1332744359970093,-2.413810729980469,-49.32628631591797,11.38668823242188,2
1596230012.291615,43,0,102344.475784,-1.012506051214463,1.091455379692425,1.191523696121654,-1.434495210647583,0.03777111321687698,-0.09747467190027237,0.09349960088729858,-0.006581366062164307,0.1256474852561951,2,0.6277968709011088,0.1431560054679031,-0.08834543029222336,0.7599819209807828,0.3285179138183594,-0.9289341568946838,-0.1707548946142197,-1.357147216796875,-49.60772705078125,9.161590576171875,2
1596230012.329792,44,0,102344.505881,-0.9196341545037183,1.018891036863383,1.172293309022264,-1.237372040748596,0.8952286839485168,0.1635158360004425,0.09017747640609741,0.01387679576873779,0.2854027152061462,2,0.6130579175344201,0.1497781800683702,-0.08100981444263627,0.7714686428391113,0.3304257690906525,-0.9216428995132446,-0.2034529745578766,-1.416000366210938,-49.70513153076172,7.6968994140625,2
1596230012.351747,45,0,102344.535979,-0.817976476430858,0.9674687306030701,1.159744340601117,-1.342795610427856,2.032649993896484,0.6200078129768372,0.224190890789032,0.156436026096344,0.3249208331108093,2,0.5997685650464148,0.1640773946443823,-0.06069147599689617,0.7808154986847518,0.3290300369262695,-0.9167009592056274,-0.226712554693222,-2.122840881347656,-50.21572113037109,5.299102783203125,2
1596230012.391005,46,0,102344.566077,-0.7100299150245855,0.9405366390083287,1.162333248325248,-0.9472206830978394,2.220584869384766,1.06875479221344,0.2547668814659119,0.05401146411895752,-0.2182604670524597,2,0.5905342546911729,0.1849964325064206,-0.02574413784117097,0.7851005344793931,0.3208871781826019,-0.9177323579788208,-0.2340912222862244,-2.683830261230469,-50.33976745605469,3.86041259765625,2
1596230012.412146,47,0,102344.596175,-0.6197607142861149,0.9011649511474287,1.165236928506064,-0.7293657064437866,0.6735615730285645,0.4568301439285278,0.277843713760376,0.1346900463104248,-1.02795422077179,2,0.5825982095886726,0.1952861388600895,-0.001022787616105358,0.7889496545905205,0.3093336224555969,-0.9188818335533142,-0.2448852956295013,-4.80645751953125,-50.33335876464844,2.003753662109375,2
1596230012.451292,48,0,102344.626272,-0.5771343384537648,0.8674883385893856,1.166614850983685,-0.1754007637500763,-0.1731147468090057,0.38917276263237,-0.251095712184906,0.1445326209068298,-0.5530830025672913,2,0.5789427900760061,0.1940458506367316,0.006381328216312709,0.7919159529396536,0.2999471724033356,-0.9194245934486389,-0.2543429136276245,-5.337684631347656,-50.27162170410156,1.242401123046875,2
1596230012.47217,49,0,102344.65637,-0.5635660683780234,0.8434033778745691,1.169488131375286,0.04622603952884674,-0.6070606112480164,-0.138545960187912,-0.5990152359008789,0.210615873336792,-0.1405602693557739,2,0.5786730603857762,0.1878033967724092,0.005469336720765106,0.7936229570418056,0.291760265827179,-0.9205507636070251,-0.2597347497940063,-6.079978942871094,-50.21006011962891,0.82830810546875,2
1596230012.509416,50,0,102344.686468,-0.5946328453091623,0.8533519967578279,1.161128874354264,0.08684149384498596,-0.6156065464019775,-0.7155652642250061,-0.3547384738922119,0.03355211019515991,-0.04853713512420654,2,0.5787882839021824,0.1845785951432213,-0.005960130346756631,0.7942917809563355,0.3001178205013275,-0.917253315448761,-0.2618697285652161,-5.490089416503906,-50.29335784912109,1.094451904296875,2
1596230012.532246,51,0,102344.716566,-0.6269113003801664,0.8649551750099493,1.144903558758675,-0.040453240275383,-0.5424383878707886,-0.5572342276573181,0.07294896245002747,-0.1142936944961548,-0.0125805139541626,2,0.5764881189570314,0.1834850078892205,-0.01935273193475834,0.7960026454035515,0.3144223392009735,-0.910670280456543,-0.2679893970489502,-4.701736450195312,-50.21443939208984,1.0599365234375,2
1596230012.572213,52,0,102344.746663,-0.6452850789918225,0.8667126582634138,1.136419644625923,0.01987588033080101,-0.4847034811973572,-0.2638885974884033,0.1816737055778503,0.005350768566131592,0.1041616797447205,2,0.5754042595606974,0.180820027691524,-0.02823760528835306,0.7971303415180808,0.3207703232765198,-0.9071325659751892,-0.2724281251430511,-3.819175720214844,-50.33081817626953,1.148284912109375,2
1596230012.592536,53,0,102344.776761,-0.6520529972328561,0.8609174601490497,1.130461474274914,-0.134931817650795,-0.1345568746328354,-0.1473258137702942,0.1115188002586365,-0.03666603565216064,0.1789725422859192,2,0.5739707744878368,0.177925430750407,-0.03406290140327511,0.7985862165401972,0.3232798278331757,-0.9046089649200439,-0.2778001725673676,-3.443809509277344,-50.41886901855469,1.182952880859375,2
1596230012.627743,54,0,102344.806859,-0.6460166464696963,0.8649094125924222,1.126603874721309,-0.1553236991167068,0.6786179542541504,0.03915806114673615,0.0127837061882019,0.02507656812667847,0.1781688928604126,2,0.5722272564153321,0.182130379639646,-0.03145279924417277,0.7989963748651459,0.3270393311977386,-0.9029579758644104,-0.2787689864635468,-3.096160888671875,-50.40168762207031,0.8544921875,2
1596230012.652767,55,0,102344.836956,-0.6346785993595925,0.8710978016100525,1.123408361501729,-0.1672258377075195,0.2219821363687515,-0.03223148733377457,-0.06857112050056458,0.05184823274612427,-0.1061400175094604,2,0.5702141287393235,0.1885671920639742,-0.02593811679345437,0.7991404317703419,0.3309639096260071,-0.9015801548957825,-0.2785965204238892,-3.229705810546875,-50.5838623046875,0.626190185546875,2
1596230012.689753,56,0,102344.867054,-0.6421519586129847,0.8806795790209184,1.118251701707783,0.03823560476303101,0.2472751587629318,-0.351902574300766,-0.09347528219223022,-0.09910666942596436,-0.09463661909103394,2,0.5693564429662918,0.1914389296516754,-0.02746316610164401,0.7990182719237718,0.3371990621089935,-0.8993373513221741,-0.27836874127388,-3.1400146484375,-50.42977905273438,0.572601318359375,2
1596230012.712929,57,0,102344.897152,-0.6523840058295027,0.9034988980802511,1.112018606051142,-0.0005923742428421974,0.547397255897522,-0.04284178465604782,0.1921230554580688,0.06551766395568848,-0.08419615030288696,2,0.5686281955702104,0.1990702152592022,-0.02661034146371072,0.7976997240816893,0.3478592932224274,-0.8965944647789001,-0.2740660607814789,-2.832321166992188,-50.40052795410156,0.45294189453125,2
1596230012.749301,58,0,102344.92725,-0.6526200458467818,0.9152809736436067,1.118322876980676,0.1872865557670593,0.03531967476010323,0.2419587969779968,0.1838255226612091,0.0383455753326416,-0.1558464765548706,2,0.5708357787298968,0.2022316737164844,-0.02175503045189753,0.7954718588639731,0.3465763032436371,-0.8993684649467468,-0.2664977312088013,-3.034049987792969,-50.26571655273438,0.665313720703125,2
1596230012.773427,59,0,102344.957347,-0.657241344490252,0.9146113064624536,1.123746385090763,0.1313636302947998,-0.135116919875145,-0.01455721259117126,-0.05027669668197632,-0.08342564105987549,0.03303444385528564,2,0.5730386773843561,0.1993782350040918,-0.02240702752137946,0.7945897363384364,0.3425279855728149,-0.9017263650894165,-0.2637499868869781,-2.951026916503906,-50.28892517089844,0.77294921875,2
1596230012.811671,60,0,102344.987445,-0.6592544062765731,0.9198584535807858,1.125799873248031,0.04245267063379288,0.2274883091449738,0.1671322137117386,-0.04671737551689148,0.07962697744369507,0.02012348175048828,2,0.5739555945562972,0.2004034802325227,-0.02117933884693884,0.793703404112118,0.3424338400363922,-0.9026122093200684,-0.2608268558979034,-2.908775329589844,-50.18415069580078,1.066925048828125,2
1596230012.833242,61,0,102345.017543,-0.6596830427104459,0.9261656407943685,1.132266690898539,0.1268578767776489,0.08207207173109055,-0.007274743635207415,-0.2136702835559845,0.03048837184906006,0.07935577630996704,2,0.5761251911006413,0.2012596649117728,-0.01788319639272379,0.7919939254475937,0.3393987715244293,-0.9053769707679749,-0.2551486194133759,-3.014610290527344,-50.28488159179688,1.164276123046875,2
1596230012.870541,62,0,102345.047641,-0.6689967004765783,0.9362340955613083,1.12746798592443,-0.02919413894414902,0.03783854097127914,-0.2373667061328888,-0.1206468939781189,-0.02125483751296997,0.07397061586380005,2,0.5756393176235224,0.2036999087193359,-0.01990603464553464,0.7916751598922209,0.3454457223415375,-0.9033289551734924,-0.254291445016861,-3.226020812988281,-50.40647888183594,1.316162109375,2
1596230012.893527,63,0,102345.0777374167,-0.6803998244497079,0.9500025345005784,1.12530796310112,0.2064387202262878,0.2443795055150986,-0.09514108300209045,0.06305792927742004,0.008657693862915039,-0.1124027371406555,2,0.5762682677724411,0.2063785280406953,-0.02101293760553824,0.7904943122719268,0.3505002856254578,-0.9024003148078918,-0.2506455779075623,-2.956100463867188,-49.96062469482422,1.204071044921875,2
1596230012.928846,64,0,102345.1078354167,-0.6911541402544039,0.9633544730653744,1.126955582911396,0.1410810202360153,-0.1893626302480698,0.002211702754721045,0.1258772313594818,0.05123084783554077,-0.2056291699409485,2,0.578037325994153,0.2081479858848264,-0.02097252423420065,0.7887378600555897,0.3525941967964172,-0.903109073638916,-0.2450945377349854,-2.886314392089844,-50.41207885742188,1.5220947265625,2
1596230012.953728,65,0,102345.1379334167,-0.7076493187927561,0.9661867319346776,1.130973589855059,0.2982392013072968,-0.5215907096862793,-0.09232808649539948,0.02421483397483826,-0.01053506135940552,-0.05083668231964111,2,0.581009650824024,0.2035009066641143,-0.02558657565371036,0.787629718136194,0.3502988219261169,-0.9048271775245667,-0.2420303374528885,-2.726890563964844,-50.38390350341797,1.945892333984375,2
1596230012.987188,66,0,102345.1680304167,-0.7255383530798589,0.9680942098481331,1.132151353125082,0.2257920205593109,-0.42787104845047,-0.04671905189752579,0.1162513494491577,0.002683401107788086,0.005017101764678955,2,0.5831967474825581,0.1987533186574298,-0.03175907322693317,0.7870006460025848,0.3498815596103668,-0.9053279757499695,-0.2407573461532593,-2.566001892089844,-50.25173187255859,2.177581787109375,2
1596230013.01382,67,0,102345.1981284167,-0.7370422500286808,0.9669150317100249,1.13976163996499,0.2518311440944672,-0.446165531873703,0.2211154401302338,0.1020943522453308,-0.006640851497650146,0.05192410945892334,2,0.5866153981557728,0.1930209379564335,-0.03458604554481626,0.785766617501688,0.3439162373542786,-0.9085339307785034,-0.2372505813837051,-2.503364562988281,-50.42430877685547,2.857086181640625,2
1596230013.049342,68,0,102345.2282264167,-0.7431426999995547,0.9558128746721856,1.147290587926939,0.2443149089813232,-0.5280600190162659,0.09061862528324127,-0.01951712369918823,-0.0198514461517334,-0.01858627796173096,2,0.5892661847920782,0.1849729696542609,-0.0382282523672241,0.7855500970319029,0.335664302110672,-0.9116538166999817,-0.2371007353067398,-2.643142700195312,-50.29237365722656,2.899871826171875,2
1596230013.074149,69,0,102345.2583244167,-0.7558144808135456,0.9563757262982321,1.154292192597381,0.2838885188102722,-0.2068390250205994,0.1155632585287094,-0.03778073191642761,0.03644752502441406,0.04496198892593384,2,0.5925385041025032,0.1796799014559813,-0.0411583192451645,0.784168010036945,0.330574244260788,-0.9145088195800781,-0.2332265079021454,-2.944664001464844,-50.16367340087891,3.498443603515625,2
1596230013.110146,70,0,102345.2884214167,-0.7674457787295706,0.9630161312414028,1.162723778698274,0.2690727710723877,-0.1758081465959549,0.160091295838356,-0.02646130323410034,0.01864689588546753,-0.0001607537269592285,2,0.5962214824445872,0.1766709271920904,-0.04146608997886031,0.7820408620371997,0.3257737159729004,-0.9178873896598816,-0.2266146540641785,-2.950149536132812,-50.14009857177734,3.856536865234375,2
1596230013.134536,71,0,102345.3185194167,-0.7776718551128209,0.9647988692198251,1.170139283001064,0.2343759834766388,-0.3222704529762268,0.08102754503488541,-0.005764544010162354,-0.03801250457763672,0.01014643907546997,2,0.599335231315642,0.1724009849969074,-0.04291751855127784,0.7805339369022017,0.3205735981464386,-0.9208049178123474,-0.2221503555774689,-3.138572692871094,-50.28833770751953,4.39385986328125,2
1596230013.168225,72,0,102345.3486174167,-0.789220005206081,0.9660554759148039,1.175854922682834,0.2237589657306671,-0.3035909831523895,0.09691406786441803,0.01180431246757507,0.02006316184997559,0.01010465621948242,2,0.6020138780541693,0.1679391800659503,-0.04548736745760029,0.7792987566808358,0.3165176510810852,-0.9230191111564636,-0.2187514454126358,-3.338691711425781,-50.40335845947266,4.646270751953125,2
1596230013.194551,73,0,102345.3787144167,-0.797593495734748,0.9659303272815897,1.183281099410686,0.2261908501386642,-0.297980785369873,0.1867391020059586,0.05948615074157715,0.009627401828765869,-0.0001743435859680176,2,0.6048546193184245,0.1634235040645996,-0.04675662267463293,0.7779829380349177,0.3108433187007904,-0.9258508682250977,-0.2148872911930084,-3.584365844726562,-50.15077209472656,5.0679931640625,2
1596230013.228274,74,0,102345.4088124167,-0.8005340435784084,0.9577647809174882,1.191717621868242,0.1903009414672852,-0.3329121768474579,0.2038436233997345,-0.01854312419891357,-0.03853589296340942,0.03307592868804932,2,0.607327645598815,0.1571459851880709,-0.04807058040496176,0.7772692161188068,0.302678644657135,-0.9290059804916382,-0.2129165381193161,-3.746231079101562,-50.14334106445312,5.141876220703125,2
1596230013.254597,75,0,102345.4389104167,-0.807497307272362,0.9531666290819302,1.197790622629979,0.1621021032333374,-0.3756976127624512,0.002692913170903921,-0.07025405764579773,-0.02319896221160889,0.0190233588218689,2,0.6094962797093944,0.1516466760927495,-0.05051861955947934,0.7765085856786871,0.2970917224884033,-0.931236207485199,-0.2110351473093033,-4.130355834960938,-50.26912689208984,5.517608642578125,2
1596230013.290039,76,0,102345.4690084167,-0.8258399750946958,0.961048560656583,1.199594429949017,0.3477058410644531,-0.2580856382846832,-0.1633713394403458,0.03346988558769226,-0.04430824518203735,-0.1055327653884888,2,0.611594468120996,0.1486270656480784,-0.05473370441281977,0.7751556930648884,0.2973679006099701,-0.9318920373916626,-0.2077244073152542,-4.124595642089844,-50.05514526367188,5.532806396484375,2
1596230013.314822,77,0,102345.4991054167,-0.8479812392551178,0.9664182287628869,1.20120019344986,0.1532939672470093,-0.8234049677848816,0.07830172032117844,0.1698068976402283,0.123364269733429,0.06303554773330688,2,0.6138180213957795,0.1434929907575154,-0.06121946101679676,0.7738795603697004,0.2972477972507477,-0.9324733018875122,-0.2052744030952454,-3.518333435058594,-50.00476837158203,6.17919921875,2
1596230013.351738,78,0,102345.5292034167,-0.8649962130537451,0.9563767584384092,1.217270173733084,0.7485079765319824,-0.7650129795074463,0.4608151018619537,0.06556850671768188,0.1481834650039673,-0.2962932586669922,2,0.6191161032493466,0.1300131343069157,-0.06642631231327506,0.7716083835925802,0.2828896343708038,-0.9381577372550964,-0.1995836645364761,-3.686042785644531,-49.97407531738281,6.39306640625,2
1596230013.375187,79,0,102345.5593014167,-0.8925071324743281,0.9772140941033205,1.237732278213088,0.5758697390556335,0.4009717404842377,0.2906389534473419,-0.106448233127594,0.02140510082244873,-0.172135055065155,2,0.627082982347503,0.1238245704899598,-0.06477400202602329,0.7663150441083471,0.2710146009922028,-0.945044994354248,-0.1828688234090805,-4.151405334472656,-49.73877716064453,7.81494140625,2
1596230013.410415,80,0,102345.5893984167,-0.9393544203493807,1.040178483846112,1.257445314610379,0.8753527402877808,0.7101861834526062,0.3518195152282715,-0.09996044635772705,0.1740822792053223,-0.05476409196853638,2,0.63699792597856,0.1274228381109921,-0.05703252818932392,0.7581190011836432,0.2658625543117523,-0.9513059854507446,-0.1559941321611404,-4.456100463867188,-49.52935791015625,8.24530029296875,2
1596230013.435367,81,0,102345.6194964167,-0.9915866831370154,1.109865043863084,1.282014700064221,0.8574184775352478,0.6496537327766418,0.5705776214599609,-0.02825605869293213,-0.05217647552490234,-0.04965013265609741,2,0.6479637186677603,0.1296513729000977,-0.0469345044413752,0.7490865450149654,0.25506392121315,-0.9585915803909302,-0.1266670823097229,-5.501220703125,-49.5087890625,9.8160400390625,2
1596230013.469056,82,0,102345.6495944167,-1.044672969399991,1.174632328610181,1.306826073414837,0.6134911179542542,0.2025999426841736,0.4227511286735535,-0.1572456359863281,0.007510721683502197,0.1126450300216675,2,0.6580696472550106,0.1288525197960542,-0.03782073032643751,0.7408853198209828,0.2407072335481644,-0.9653617143630981,-0.1006827354431152,-6.699691772460938,-49.05547332763672,11.08892822265625,2
1596230013.495477,83,0,102345.6796914167,-1.10576240935712,1.243641982123731,1.320032899369033,0.7702832221984863,0.5356426239013672,0.1911852955818176,0.0348660796880722,0.1045761108398438,0.01764500141143799,2,0.6657731074917496,0.1299066102596639,-0.03325297684098305,0.7340059371704206,0.2349823266267776,-0.9687232375144958,-0.07974088191986084,-7.174980163574219,-48.9852294921875,11.75393676757812,2
1596230013.527637,84,0,102345.7097894167,-1.180591996343168,1.330887574179725,1.338197631074977,0.6832159757614136,0.4276280701160431,0.5888113379478455,0.04653450846672058,-0.06925606727600098,-0.05007940530776978,2,0.6749228652731198,0.1307411496497086,-0.02528336070708787,0.7257731701408854,0.223905473947525,-0.9730706810951233,-0.05477175489068031,-7.822212219238281,-48.62819671630859,13.15777587890625,2
1596230013.555712,85,0,102345.7398874167,-1.249815722099191,1.408608987967801,1.359611177488425,0.5814551115036011,0.3391788005828857,0.5110011696815491,-0.1674156785011292,0.04120242595672607,0.09474670886993408,2,0.6831233726678885,0.1281330536439817,-0.01659193428328798,0.7187831375110476,0.206868439912796,-0.9777831435203552,-0.03384875506162643,-8.415733337402344,-48.20743560791016,13.61477661132812,2
1596230013.58708,86,0,102345.7699854167,-1.334633442968467,1.500898107035919,1.369801990064118,0.7131353616714478,0.2177809327840805,0.01671175844967365,-0.09961798787117004,0.07497763633728027,-0.03062021732330322,2,0.6902952096309398,0.128533308753493,-0.01169432632600637,0.7119235048729766,0.1991568356752396,-0.9798685312271118,-0.01394342444837093,-9.178146362304688,-47.99790191650391,14.70086669921875,2
1596230013.615823,87,0,102345.8000824167,-1.427380770048815,1.58139685445973,1.369271120833411,0.4065282046794891,-0.8304644227027893,-0.008624345064163208,-0.003871709108352661,-0.09660816192626953,-0.1377677917480469,2,0.6967150795947984,0.1250959709761598,-0.01684961424538284,0.7061552798966269,0.2001531273126602,-0.9797624349594116,0.002121808240190148,-9.386489868164062,-47.70140838623047,15.33584594726562,2
1596230013.65011,88,0,102345.8301804167,-1.485363575850813,1.620261218311398,1.369008538440958,0.445667028427124,-0.2506743967533112,-0.004239568486809731,-0.04341563582420349,0.0636475682258606,0.2427974939346313,2,0.7006303614614282,0.1186254300010289,-0.02379541954942965,0.7031919904054252,0.2001764923334122,-0.979709804058075,0.009909791871905327,-8.635093688964844,-47.37294769287109,16.20849609375,2
1596230013.676086,89,0,102345.8602784167,-1.540246479000708,1.672419292998007,1.367269169354516,0.1967297494411469,-0.06836555153131485,-0.009782228618860245,0.005868136882781982,-0.0361943244934082,0.1373938322067261,2,0.7044652236901598,0.1182426908615014,-0.02533357503908978,0.6993608285365059,0.201081857085228,-0.9793597459793091,0.02050517126917839,-8.717536926269531,-47.24143218994141,16.7904052734375,2
1596230013.710325,90,0,102345.8903754167,-1.557206097393229,1.681273005273053,1.368623684151796,0.08321879059076309,-0.3641380965709686,0.04244390875101089,0.00823509693145752,-0.09670877456665039,0.06882870197296143,2,0.7055993556602181,0.1148859446725652,-0.02766120010018419,0.6986885587972002,0.1995744407176971,-0.9796326160430908,0.02213846147060394,-8.646690368652344,-47.03157043457031,17.01763916015625,2
1596230013.736262,91,0,102345.9204734167,-1.564622417704063,1.68293526520814,1.367606042518404,0.0437953807413578,0.1093962714076042,-0.01083565689623356,0.1092133671045303,0.1160808801651001,0.1713308095932007,2,0.7060280478483202,0.1132043598056025,-0.03002445780746199,0.6984322944510619,0.2005273848772049,-0.9794277548789978,0.02258166298270226,-8.596290588378906,-47.32672119140625,17.16799926757812,2
1596230013.771992,92,0,102345.9505714167,-1.576128799855631,1.69545433428245,1.374780873911102,0.003358475863933563,-0.3375529944896698,0.4857978224754333,0.1555730551481247,-0.1145485639572144,-0.1277037858963013,2,0.7069552401339229,0.1110056818205198,-0.02708450479233732,0.6979674347213858,0.1932517737150192,-0.9808503985404968,0.02421594597399235,-8.626419067382812,-47.05805969238281,17.18685913085938,2
1596230013.796467,93,0,102345.9806684167,-1.577029471110642,1.680467632616625,1.386747638338842,-0.02753440290689468,-0.6875371336936951,0.2007651925086975,-0.02782043814659119,0.04467886686325073,0.02224373817443848,2,0.7069369131690025,0.1012703521071196,-0.02847046776378542,0.6994098104500396,0.1819126009941101,-0.983110785484314,0.02003096602857113,-9.123039245605469,-46.95996856689453,17.15521240234375,2
1596230013.830989,94,0,102346.0107664167,-1.608278920741518,1.693062868206853,1.38732860569327,0.3853218257427216,-0.3391124904155731,-0.01891053467988968,-0.1930356919765472,0.1244984269142151,0.1071674823760986,2,0.7086694354999298,0.09440866067327153,-0.03472731094726794,0.698332693815706,0.1810776740312576,-0.9832169413566589,0.02225072868168354,-9.013847351074219,-46.84105682373047,17.42697143554688,2
1596230013.856902,95,0,102346.0408644167,-1.649923303485965,1.732211778798473,1.388294510185193,0.09924361854791641,0.2474320828914642,0.1195336580276489,-0.1165387034416199,0.01774299144744873,0.05271744728088379,2,0.7112998999490501,0.09293319741379716,-0.03500489332418866,0.6958379640638401,0.1791308522224426,-0.9833927154541016,0.02916825376451015,-8.846092224121094,-46.87039947509766,17.70925903320312,2
1596230013.886694,96,0,102346.0709619167,-1.676262064008344,1.765177076609715,1.391433390638622,0.1512894928455353,0.02446450293064117,0.135033130645752,-0.06587231159210205,-0.02823948860168457,-0.02921402454376221,2,0.7130283076067865,0.09391875711186312,-0.03131963268646848,0.6941102742992673,0.175043523311615,-0.9839575290679932,0.03446020185947418,-9.454689025878906,-46.45405578613281,18.04534912109375,2
1596230013.91688,97,0,102346.1010599167,-1.680790671233489,1.769619361473064,1.391976094600868,-0.1103458777070045,0.1028693690896034,-0.07245394587516785,-0.02938735485076904,0.02143412828445435,0.06049835681915283,2,0.7132981792023396,0.09365713938133774,-0.03111722914842524,0.6938773654418922,0.1743648648262024,-0.9840542078018188,0.03513190522789955,-9.269073486328125,-46.74846649169922,17.99392700195312,2
1596230013.948412,98,0,102346.1311579167,-1.670262270679566,1.762758818249392,1.392594127822252,-0.04601067304611206,0.1196052357554436,0.0890086442232132,0.04098469018936157,-0.0180666446685791,0.0433204174041748,2,0.7126847274176114,0.09481516688900404,-0.02969289892398769,0.6944126894310769,0.1740050613880157,-0.9841639399528503,0.03381887450814247,-9.533363342285156,-46.81201171875,18.01828002929688,2
1596230013.977019,99,0,102346.1612559167,-1.643838136360848,1.738237131718734,1.396933696708819,-0.2894947528839111,-0.00416717492043972,0.1330496519804001,0.07310745120048523,-0.04096293449401855,0.07124924659729004,2,0.7110162435560563,0.09418597267372478,-0.02771254332254713,0.6962880257402301,0.1705692708492279,-0.9849238991737366,0.02883019298315048,-9.748558044433594,-46.54235076904297,17.88116455078125,2
1596230014.007966,100,0,102346.1913529167,-1.594577263326265,1.686228179791802,1.402386588019927,-0.2832988500595093,-0.215334877371788,0.1275789141654968,0.04132726788520813,0.04226887226104736,0.001205563545227051,2,0.7079979636571962,0.09160517519693262,-0.02705040379821139,0.6997255144127713,0.1665002256631851,-0.9858525395393372,0.01930524967610836,-9.562469482421875,-46.72617340087891,17.32846069335938,2
1596230014.037261,101,0,102346.2214509167,-1.553670447567659,1.643066996786108,1.405870651319134,-0.2204076647758484,0.03116454370319843,0.05231369286775589,0.001435041427612305,-0.04427295923233032,0.08619439601898193,2,0.7056057969205273,0.08971046371090952,-0.02673333816798812,0.7023943717946539,0.1637506484985352,-0.9864305853843689,0.01185501553118229,-9.8721923828125,-47.03909301757812,16.8779296875,2
1596230014.069268,102,0,102346.2515489167,-1.490130599377893,1.573886720895527,1.407900119936967,-0.4545871317386627,-0.3336663544178009,0.08890469372272491,-0.1068791449069977,0.01024651527404785,-0.03006076812744141,2,0.7019138795687708,0.08699138926382044,-0.02798045285725653,0.7063757185173233,0.1621769517660141,-0.986761748790741,0.0005011922912672162,-9.803916931152344,-46.95517730712891,16.6568603515625,2
1596230014.09737,103,0,102346.2816459167,-1.442810888495849,1.523567888830088,1.410817897973768,-0.06917361915111542,0.06408655643463135,0.07417972385883331,-0.1132111847400665,0.09772741794586182,-0.03435170650482178,2,0.6993277667194593,0.08473712487639753,-0.02783135660481806,0.7092149527830806,0.1591201573610306,-0.9872307181358337,-0.007520588580518961,-10.01150512695312,-47.11989593505859,16.3565673828125,2
1596230014.128058,104,0,102346.3117439167,-1.420083125313093,1.508826589581128,1.408535786459669,-0.2121619880199432,0.4063912928104401,-0.1865147948265076,-0.07255846261978149,-0.01420056819915771,0.07299387454986572,2,0.6980048016969368,0.08824339314865026,-0.02571921565851826,0.7101696975235214,0.1612398326396942,-0.9868646264076233,-0.01000480074435472,-10.04375457763672,-47.14253997802734,16.39413452148438,2
1596230014.1576,105,0,102346.3418419167,-1.370490316984599,1.467102802859703,1.405558015590374,-0.2810634970664978,0.02774985507130623,0.09987709671258926,0.05572190880775452,0.006624042987823486,-0.05805915594100952,2,0.6950370845791801,0.09170924551097306,-0.02365340202577704,0.7127084852403038,0.1636039018630981,-0.9863792061805725,-0.01702573150396347,-10.07310485839844,-47.36143493652344,15.68423461914062,2
1596230014.187641,106,0,102346.3719389167,-1.339358021411037,1.435018912184592,1.409428955686937,-0.06770004332065582,-0.2000739723443985,0.08727104961872101,0.06481865048408508,0.04382193088531494,-0.1740769743919373,2,0.6935951872250293,0.08973077102312541,-0.02233407007025295,0.7144056348196202,0.1591899394989014,-0.9870085120201111,-0.02174820937216282,-10.15526580810547,-47.38944244384766,15.54714965820312,2
1596230014.21787,107,0,102346.4020369167,-1.332192661628783,1.419920901342842,1.4081680587128,-0.005410093814134598,-0.103599451482296,-0.1516553610563278,-0.1425734162330627,-0.07358682155609131,0.02999204397201538,2,0.692978283605365,0.08725302444113092,-0.02544458447760978,0.7152066669873807,0.1600729823112488,-0.9868051409721375,-0.02433601580560207,-10.24140167236328,-47.51725006103516,15.54425048828125,2
1596230014.249371,108,0,102346.4321349167,-1.330608946401785,1.415140157589568,1.402342965892916,-0.03680279478430748,-0.06335920095443726,-0.1789868772029877,-0.02320688962936401,0.1111706495285034,-0.02680176496505737,2,0.6922737530276747,0.08809727906466072,-0.02855431751245541,0.7156680164887401,0.1656316220760345,-0.9858452677726746,-0.02599184028804302,-9.966590881347656,-47.43794250488281,15.46929931640625,2
1596230014.27833,109,0,102346.4622319167,-1.325795543426254,1.413377215187943,1.401828437946266,-0.07517065852880478,0.121514119207859,0.1815627664327621,0.07769641280174255,-0.004136264324188232,0.05139470100402832,2,0.6919842806379557,0.08930906861677326,-0.027620082593804,0.7158343999582746,0.1660863310098648,-0.9857588410377502,-0.02636329084634781,-9.825233459472656,-47.51750946044922,15.36285400390625,2
1596230014.310195,110,0,102346.4923299167,-1.303960784083739,1.387420422307991,1.405226098329956,-0.1083655059337616,-0.2881636321544647,-0.08499353379011154,-0.1032574474811554,-0.05037665367126465,-0.1470900177955627,2,0.6910203979621148,0.08639362175558374,-0.02759791989530042,0.7171228990149203,0.1620511412620544,-0.9863245487213135,-0.03005390428006649,-10.03929138183594,-47.51925659179688,15.33599853515625,2
1596230014.338313,111,0,102346.5224279167,-1.30141997460013,1.377022946985681,1.399039543487622,-0.02185005880892277,-0.1912101954221725,-0.1876666396856308,-0.04184392094612122,0.102546751499176,-0.01881182193756104,2,0.6900775855901352,0.08565661529415478,-0.03240694375197145,0.717917657633669,0.1677154004573822,-0.9852860569953918,-0.03291174024343491,-9.572334289550781,-47.59291076660156,15.11331176757812,2
1596230014.373271,112,0,102346.5525249167,-1.307881832003931,1.381306666958947,1.397010708015457,0.04869883507490158,-0.03944992646574974,0.0246664434671402,0.06698751449584961,0.002446651458740234,0.003195345401763916,2,0.6902014207880276,0.08565794602085172,-0.03394625086281905,0.7177272813519648,0.1698175966739655,-0.9849372506141663,-0.03256943076848984,-9.496795654296875,-47.78308868408203,15.29904174804688,2
1596230014.398403,113,0,102346.5826229167,-1.299150115973942,1.367748673629395,1.397980030278271,-0.08552505075931549,-0.3019732236862183,-0.01941713131964207,-0.03858053684234619,-0.06534659862518311,0.02644860744476318,2,0.6897060941467242,0.08347109527683391,-0.03515503789257945,0.7184025621426353,0.168424978852272,-0.9851043820381165,-0.03467616066336632,-9.433021545410156,-47.73218536376953,15.3292236328125,2
1596230014.428482,114,0,102346.6127209167,-1.291179586760199,1.353201492133312,1.393864979095657,-0.01783649250864983,-0.00898430310189724,-0.1931305974721909,-0.01529631018638611,0.08024477958679199,0.1010265350341797,2,0.6886313760683646,0.08239099493634011,-0.03871337982941869,0.7193745023767648,0.1718584597110748,-0.9843884110450745,-0.03799710422754288,-8.995956420898438,-47.55225372314453,15.14523315429688,2
1596230014.458684,115,0,102346.6428179167,-1.281032291812477,1.347490479038667,1.390279045136031,-0.2001110911369324,0.08497119694948196,0.06358537822961807,0.0914844274520874,-0.06212496757507324,0.09600734710693359,2,0.6876679705142147,0.08504671285042437,-0.03825357856436484,0.7200114569330405,0.175080731511116,-0.9837509393692017,-0.03975963965058327,-8.987556457519531,-47.6239013671875,15.11233520507812,2
1596230014.489257,116,0,102346.6729159167,-1.240821674751986,1.304240430026353,1.392967342493056,-0.1707062721252441,-0.2691975831985474,0.08441600203514099,-0.1022643446922302,-0.02802449464797974,-0.0579986572265625,2,0.6855079086315931,0.08234687171202515,-0.03768768253667792,0.7224110495044114,0.170646995306015,-0.9842300415039062,-0.04659580066800117,-9.112678527832031,-47.83831787109375,14.72747802734375,2
1596230014.518772,117,0,102346.7030139167,-1.232308196908275,1.293127444710485,1.388637800037058,-0.05792815983295441,0.1762347966432571,-0.2680357098579407,-0.09252750873565674,0.161329984664917,0.04312539100646973,2,0.6843487023183477,0.08269596904818638,-0.03987511223259943,0.7233519839546467,0.1742135435342789,-0.9834549427032471,-0.0496564619243145,-9.064094543457031,-47.85310363769531,14.66018676757812,2
1596230014.550953,118,0,102346.7331119167,-1.235246052870037,1.303757455085169,1.382943382322445,-0.09105122089385986,0.1469679325819016,-0.02751257829368114,-0.02831867337226868,-0.1142830848693848,0.03891277313232422,2,0.6838965338571217,0.08744189582533154,-0.03921998675337673,0.7232573590544951,0.180130809545517,-0.9824074506759644,-0.04927889257669449,-8.806060791015625,-47.89308929443359,14.58847045898438,2
1596230014.579076,119,0,102346.7632089167,-1.219770150554389,1.289218585416282,1.380857898402573,-0.02261300012469292,-0.006078082136809826,-0.1755273044109344,-0.01250851154327393,0.1060382723808289,-0.1247771382331848,2,0.6826391047166692,0.08816439689030178,-0.039288051738048,0.7243530802304783,0.1813634186983109,-0.98201584815979,-0.05246178433299065,-8.6279296875,-47.90097808837891,14.334228515625,2
1596230014.610489,120,0,102346.7933069167,-1.231891843258247,1.299650921879551,1.374429792603723,-0.02526678517460823,-0.1554594933986664,-0.154561460018158,0.052167147397995,0.004506945610046387,-0.09068316221237183,2,0.6824810224867452,0.0899516984093876,-0.04227867772468208,0.7241139388457973,0.1879793405532837,-0.9807819724082947,-0.05225669220089912,-8.572792053222656,-48.26289367675781,14.38525390625,2
1596230014.639204,121,0,102346.8234049167,-1.224811910000651,1.287059699111288,1.372830954226528,-0.1022967100143433,-0.2592762112617493,-0.009312405250966549,0.06002181768417358,-0.05594503879547119,-0.01956135034561157,2,0.6816650676850327,0.08833853264645355,-0.04454521706749043,0.7249446481238689,0.1888109296560287,-0.98046875,-0.0550580769777298,-8.429222106933594,-48.17661285400391,14.366455078125,2
1596230014.669983,122,0,102346.8535019167,-1.21127509043971,1.267920610012716,1.370302966836642,-0.06919163465499878,-0.07845047116279602,-0.03792884945869446,0.04317867755889893,0.09547960758209229,0.06781697273254395,2,0.6802629506865436,0.08684462146529118,-0.04699661491663099,0.7262862460349353,0.190088227391243,-0.9799684286117554,-0.05940065905451775,-8.1419677734375,-48.05585479736328,14.19100952148438,2
1596230014.699333,123,0,102346.8835999167,-1.19355669228553,1.249381776841771,1.370759628900045,-0.2496423423290253,0.0663577988743782,0.1862418204545975,0.006900966167449951,-0.07009273767471313,0.03938931226730347,2,0.6791328480230955,0.08597749563385768,-0.04670558305698774,0.7274648453819169,0.1885298043489456,-0.9800592660903931,-0.06277289241552353,-7.993156433105469,-48.20063018798828,14.1507568359375,2
1596230014.730335,124,0,102346.9136979167,-1.151265624733793,1.209312924844457,1.372525331513442,-0.03801857680082321,-0.05977478995919228,-0.09072711318731308,-0.04196375608444214,0.1301363706588745,-0.04626476764678955,2,0.6766984509170167,0.0851351087364281,-0.04429673389366717,0.7299787860618274,0.1842447072267532,-0.9804086089134216,-0.0696624368429184,-8.539772033691406,-48.33980560302734,13.63082885742188,2
1596230014.759518,125,0,102346.9437949167,-1.155031264130196,1.211748498938092,1.369781119430543,-0.06993438303470612,0.03021383471786976,0.0274139940738678,0.0713401734828949,0.03972560167312622,-0.0344700813293457,2,0.6764512068822404,0.08564092738241216,-0.04574353832660821,0.7300596187105486,0.1869325041770935,-0.9798643589019775,-0.07015879452228546,-8.185775756835938,-48.30970764160156,13.58383178710938,2
1596230014.792468,126,0,102346.9738929167,-1.132011852370746,1.187150467467717,1.372410654182882,-0.1448610872030258,-0.1504328548908234,0.1716531664133072,0.002143055200576782,-0.08187711238861084,-0.04867768287658691,2,0.6753728294143984,0.08358373230394833,-0.04479141978626777,0.7313543298223996,0.1827604621648788,-0.9803860187530518,-0.07377060502767563,-8.478096008300781,-48.2972412109375,13.6485595703125,2
1596230014.82008,127,0,102347.0039909167,-1.108904528924861,1.15961297615494,1.373640143362258,-0.05373088270425797,-0.1312284022569656,-0.005256910342723131,-0.1630803048610687,0.09320300817489624,0.04165971279144287,2,0.6740236713197379,0.0809053887352684,-0.04522700769051941,0.7328717465640159,0.1795547008514404,-0.9806275963783264,-0.07829281687736511,-8.43768310546875,-48.21565246582031,13.57476806640625,2
1596230014.849939,128,0,102347.0340879167,-1.110683150690379,1.163929476560339,1.371552525765382,-0.01669491454958916,0.2262916415929794,-0.07785741984844208,-0.06667834520339966,0.001447439193725586,0.03206616640090942,2,0.6738112417116338,0.08255206711343752,-0.04509234312365523,0.7328917969029799,0.181770920753479,-0.9802165031433105,-0.07832713425159454,-8.38787841796875,-48.21511077880859,13.6417236328125,2
1596230014.879949,129,0,102347.064185375,-1.104462766131911,1.161958515439892,1.368622090047455,-0.07162826508283615,0.05774689093232155,-0.07602401077747345,-0.003700733184814453,0.006562232971191406,-0.0008533596992492676,2,0.6729682239672734,0.08485550033231129,-0.04441298442734259,0.7334444958604192,0.1842506527900696,-0.9796323180198669,-0.07982663065195084,-8.567459106445312,-48.30321502685547,13.32638549804688,2
1596230014.909981,130,0,102347.094283375,-1.109243988343418,1.16888308890864,1.367707879684105,0.0102574210613966,0.1716481149196625,-0.0447302833199501,0.03012582659721375,0.04850494861602783,0.02553540468215942,2,0.6731577539599708,0.08607601196314285,-0.04412824850921843,0.7331454524598167,0.1856230199337006,-0.9794483184814453,-0.07889911532402039,-8.369102478027344,-48.51069641113281,13.12380981445312,2
1596230014.940153,131,0,102347.124380375,-1.095616224764624,1.164292283044138,1.368065573547462,-0.123442642390728,0.3586418330669403,0.1322380006313324,0.09196293354034424,-0.05713474750518799,0.03863263130187988,2,0.6725305010675595,0.08886371342666316,-0.04056117003385862,0.7335944155891454,0.1849370896816254,-0.9795203804969788,-0.07961193472146988,-8.548027038574219,-48.38174438476562,13.12567138671875,2
1596230014.970216,132,0,102347.154478375,-1.084478097615457,1.156851263637579,1.371519566382328,0.09348213672637939,-0.1147549673914909,0.06112112104892731,-0.02541500329971313,0.03972518444061279,-0.1331231594085693,2,0.6725360066273354,0.08878719051788636,-0.03787655657167405,0.7337420624268663,0.1812404841184616,-0.98021000623703,-0.07962431013584137,-8.849937438964844,-48.23748016357422,13.04083251953125,2
1596230015.000403,133,0,102347.184576375,-1.100113227986121,1.170725822376248,1.371988603447279,0.05648358538746834,0.01412617042660713,-0.05042866244912148,-0.01259902119636536,0.02643722295761108,0.02611124515533447,2,0.673581947472046,0.08846382106392978,-0.03878997110310872,0.7327733261159084,0.1819043010473251,-0.9803027510643005,-0.07692302763462067,-8.748641967773438,-48.33586120605469,13.21142578125,2
1596230015.030353,134,0,102347.214673375,-1.108458359738718,1.180010618386311,1.372183137843424,0.08010357618331909,0.03635361045598984,0.008128123357892036,-0.07691782712936401,-0.02695989608764648,-0.0445864200592041,2,0.6741673795735232,0.08899048440202431,-0.03865539745027591,0.7321780221954909,0.1824341714382172,-0.9803411364555359,-0.07515807449817657,-8.809867858886719,-48.44677734375,13.24050903320312,2
1596230015.060663,135,0,102347.244771375,-1.115559433618909,1.1895775460613,1.370754743842002,-0.009631630964577198,0.1218176409602165,-0.1121162623167038,-0.08075632154941559,0.05164122581481934,0.04962867498397827,2,0.6744142807199771,0.09055450404846288,-0.03848926780980277,0.7317676219713062,0.1844451278448105,-0.9800583124160767,-0.0739305168390274,-8.78204345703125,-48.30733489990234,13.43966674804688,2
1596230015.091059,136,0,102347.274869375,-1.127249087087991,1.20493958055929,1.368551791739441,0.1227099001407623,0.1310614049434662,-0.07126547396183014,-0.006260901689529419,0.003847360610961914,0.06784015893936157,2,0.6748573333561377,0.09293673391521201,-0.03829564373214467,0.7310703199877018,0.1875747740268707,-0.9796181917190552,-0.07186068594455719,-8.858680725097656,-48.21183013916016,13.36477661132812,2
1596230015.120761,137,0,102347.304966375,-1.134678802078108,1.214692660319266,1.367864202742457,-0.07668593525886536,0.1297466903924942,-0.02037843875586987,0.04246266186237335,0.009780049324035645,-0.008166015148162842,2,0.6752720882895406,0.09421438447662697,-0.03794204721407712,0.7305419792445993,0.1888975352048874,-0.9794798493385315,-0.07026251405477524,-8.547317504882812,-48.40449523925781,13.82818603515625,2
1596230015.150784,138,0,102347.335064375,-1.127771287613712,1.212752962418405,1.367091754277877,0.004863053094595671,0.1739194393157959,-0.01752948202192783,-0.05177570879459381,-0.02026993036270142,-0.02299851179122925,2,0.6747743257610408,0.09608645680917186,-0.0363247435455889,0.7308402702886417,0.1894697099924088,-0.9793238639831543,-0.07089400291442871,-8.509567260742188,-48.4969482421875,13.34494018554688,2
1596230015.180936,139,0,102347.365161375,-1.138971365187306,1.229161229762727,1.366213729173914,0.1403325200080872,0.1144625917077065,-0.07285173982381821,0.0298532247543335,0.03457307815551758,-0.02855253219604492,2,0.6754626305835411,0.09858173273702098,-0.03516272211976795,0.7299283691995626,0.1914174109697342,-0.979145884513855,-0.06806375086307526,-8.501701354980469,-48.30777740478516,13.31216430664062,2
1596230015.210977,140,0,102347.395259375,-1.197023238916409,1.27981882058925,1.368692105862931,0.4141004979610443,-0.2234815508127213,-0.01724052801728249,0.03773915767669678,0.02885496616363525,-0.09193474054336548,2,0.679621535592184,0.09654412375912466,-0.03831411123858969,0.7261720804488363,0.1922934800386429,-0.9796463847160339,-0.05758760124444962,-8.540206909179688,-48.29471588134766,13.42257690429688,2
1596230015.241449,141,0,102347.425357375,-1.217265587871625,1.299238368692627,1.369549480213296,-0.07871074974536896,0.2374788820743561,-0.0209787655621767,-0.003446519374847412,-0.04207718372344971,0.1378676891326904,2,0.6810982783093715,0.09641766100040619,-0.03876350395203781,0.7247801896724835,0.1925667375326157,-0.9798181056976318,-0.05361754074692726,-8.377006530761719,-48.08451843261719,14.27468872070312,2
