loggingTime,loggingSample,identifierForVendor,motionTimestamp_sinceReboot,motionYaw,motionRoll,motionPitch,motionRotationRateX,motionRotationRateY,motionRotationRateZ,motionUserAccelerationX,motionUserAccelerationY,motionUserAccelerationZ,motionAttitudeReferenceFrame,motionQuaternionX,motionQuaternionY,motionQuaternionZ,motionQuaternionW,motionGravityX,motionGravityY,motionGravityZ,motionMagneticFieldX,motionMagneticFieldY,motionMagneticFieldZ,motionMagneticFieldCalibrationAccuracy
1596230042.358622,1,0,102374.542986375,-1.00031684021119,1.016138618360333,1.288294052598669,0.08789333701133728,-0.05230308324098587,-0.04590834677219391,-0.00722135603427887,-0.007927179336547852,-0.03696149587631226,2,0.6469476332606897,0.08974438982222044,-0.0786682410688887,0.7531374481853591,0.2369681894779205,-0.9603608846664429,-0.1468094140291214,-5.346969604492188,-49.24800872802734,10.92898559570312,2
1596230042.388987,2,0,102374.573083375,-1.000333881769179,1.015959870631912,1.288993153729172,-0.006252503953874111,-0.01526281051337719,0.07314980775117874,0.04054886102676392,0.01518905162811279,0.03347760438919067,2,0.6471067334577304,0.08946475345983737,-0.07852512060757916,0.7530488942827804,0.2363709360361099,-0.9605555534362793,-0.1464978605508804,-5.108116149902344,-49.19720458984375,11.12954711914062,2
1596230042.418762,3,0,102374.603180375,-0.9969790096255602,1.011904301762621,1.290986212910168,0.002585446462035179,-0.01520503032952547,0.08064130693674088,-0.03711231052875519,-0.01164054870605469,0.009386301040649414,2,0.6472706162314659,0.08843472513150691,-0.07798416605690073,0.753086027093658,0.2341516315937042,-0.9611079096794128,-0.1464401036500931,-5.240753173828125,-49.13655090332031,11.05422973632812,2
1596230042.452281,4,0,102374.633277375,-0.9960509524219213,1.011515714167009,1.291498452486385,0.036983922123909,0.02308231964707375,-0.05080264806747437,-0.05630052089691162,0.04338854551315308,-0.01005792617797852,2,0.6473358873504227,0.08843775959387434,-0.07760908781913345,0.7530683873384624,0.2336776554584503,-0.9612492322921753,-0.1462700217962265,-5.553153991699219,-49.17522430419922,10.96218872070312,2
1596230042.479357,5,0,102374.663374375,-1.000870799418559,1.017893795353962,1.290850760200329,0.01699263788759708,0.060193732380867,0.01134354993700981,0.03916098177433014,0.0001475811004638672,0.04633080959320068,2,0.6476445210759971,0.0894696390681918,-0.07755043458831673,0.7526870581956302,0.2351355105638504,-0.9610704779624939,-0.1451035141944885,-5.499298095703125,-49.28575134277344,11.25143432617188,2
1596230042.508964,6,0,102374.693471375,-0.9955442878027739,1.014133427124456,1.293323177571748,0.00211621355265379,0.0834035724401474,0.1462024450302124,0.003873512148857117,-0.01196521520614624,0.006936252117156982,2,0.6478463879163029,0.08904884633391058,-0.07603082805601624,0.7527182462824433,0.2325699776411057,-0.9617506861686707,-0.1447307169437408,-5.363319396972656,-49.17615509033203,11.04782104492188,2
1596230042.539173,7,0,102374.723568375,-0.9919952307140626,1.012093486182078,1.293026729396228,0.06262064725160599,-0.04036275297403336,-0.07420119643211365,-0.03871987760066986,-0.007790267467498779,-0.07581949234008789,2,0.6475404801431445,0.08951763490092998,-0.07544310274831001,0.7529849004332601,0.2325157821178436,-0.9616694450378418,-0.1453558355569839,-5.489173889160156,-49.16324615478516,11.0445556640625,2
1596230042.569243,8,0,102374.753666375,-1.006211042913402,1.026136333994178,1.293381780955216,0.06737787276506424,0.004642684012651443,0.08832655847072601,0.02416685223579407,0.03326290845870972,-0.01029157638549805,2,0.6487945117693037,0.09008826676188075,-0.07613450998747456,0.751766826514906,0.2342420518398285,-0.9617667198181152,-0.1418995708227158,-5.185279846191406,-49.20671081542969,11.09686279296875,2
1596230042.59941,9,0,102374.783763375,-1.002902380365065,1.023333817171696,1.299622221614214,0.1205542832612991,-0.04560796916484833,0.1878630071878433,-0.02487264573574066,-0.02650189399719238,-0.08643454313278198,2,0.6499972852603138,0.08825642202544595,-0.07394205929872344,0.7511637407660948,0.2287143170833588,-0.9634570479393005,-0.1394286602735519,-5.518753051757812,-49.19342803955078,11.21969604492188,2
1596230042.632201,10,0,102374.813860375,-1.011538484646117,1.028959305954431,1.302996033219681,0.1626007109880447,-0.1374857723712921,-0.04960262775421143,-0.08146464824676514,0.04882580041885376,-0.06519424915313721,2,0.6513653979687171,0.08655457107109948,-0.07434661213797727,0.7501360805635011,0.2267090380191803,-0.9643552899360657,-0.1364628523588181,-5.602691650390625,-48.97500610351562,11.58773803710938,2
1596230042.659637,11,0,102374.843957375,-1.036059333060525,1.048289303066297,1.304620918813929,0.2390533238649368,-0.08302072435617447,-0.0629739835858345,-0.1357729285955429,0.00517737865447998,-0.05693447589874268,2,0.6535181993827524,0.08530791613091041,-0.07673654987879919,0.748163138590598,0.227945938706398,-0.9647839665412903,-0.1312730461359024,-5.543701171875,-48.91323852539062,11.76168823242188,2
1596230042.689958,12,0,102374.874054375,-1.068483498226196,1.081813484919397,1.30614469685212,0.364939957857132,0.1612043678760529,-0.1025724858045578,0.01480837166309357,0.07110399007797241,-0.1316455602645874,2,0.6565379507723026,0.08674010252066441,-0.07739684941066172,0.7452809878071296,0.2309194356203079,-0.9651836752891541,-0.122868150472641,-5.395980834960938,-49.04632568359375,12.01431274414062,2
1596230042.719725,13,0,102374.904151375,-1.105143876147134,1.117790821813443,1.310526380424009,0.3395649790763855,-0.0649200901389122,0.03022320009768009,-0.07366043329238892,0.01865202188491821,-0.01796728372573853,2,0.6604323952543004,0.0866823598145999,-0.07781529298617329,0.7417950561287645,0.2313845753669739,-0.9663205742835999,-0.1126304417848587,-5.086151123046875,-48.82710266113281,12.6307373046875,2
1596230042.750317,14,0,102374.934248375,-1.14712453149687,1.159672476744857,1.313423318276205,0.3963527381420135,0.1986324340105057,-0.1417790204286575,-0.0004374086856842041,0.04505348205566406,-0.02328276634216309,2,0.6644599943849915,0.08735314170988293,-0.07855382808417521,0.7380322719586284,0.2333306223154068,-0.9670619964599609,-0.1017246916890144,-5.273429870605469,-48.48703002929688,13.1231689453125,2
1596230042.779968,15,0,102374.964345375,-1.188474101953669,1.21028390768133,1.316716844421887,0.3193820118904114,0.501237690448761,0.1326886713504791,0.1176208704710007,0.01296937465667725,0.09823310375213623,2,0.6688515225210173,0.0911291135787777,-0.07583183524498033,0.7338819041469247,0.2351964861154556,-0.9678950905799866,-0.08866625279188156,-5.031227111816406,-48.66188812255859,13.52890014648438,2
1596230042.810009,16,0,102374.994443375,-1.221253799221413,1.258130684065393,1.3281751512222,0.4583647847175598,0.3348220586776733,0.388971745967865,0.2344899624586105,0.03125041723251343,-0.0414581298828125,2,0.6739733492978898,0.09386294987939545,-0.06798015657219325,0.7296083854900532,0.228600025177002,-0.9707115888595581,-0.07389934360980988,-5.768447875976562,-48.72765350341797,14.16549682617188,2
1596230042.840177,17,0,102375.024540375,-1.260990685536762,1.296798289917453,1.343129733839385,0.4716317355632782,-0.2487772256135941,0.3476670980453491,0.04718098044395447,-0.06488883495330811,-0.09114080667495728,2,0.6793041903156108,0.08949821411812262,-0.06434362759619849,0.7255313611719285,0.2172853201627731,-0.9741957187652588,-0.06107177212834358,-6.152084350585938,-48.27535247802734,14.41763305664062,2
1596230042.870178,18,0,102375.054637375,-1.336267038015647,1.368092214773816,1.355892816113609,0.5973501205444336,0.227422758936882,0.2184960395097733,-0.1631340682506561,0.06888628005981445,0.1772786378860474,2,0.6864928154188472,0.08521537115503844,-0.06284230589793444,0.7193864335251309,0.2088871449232101,-0.9769969582557678,-0.04293191060423851,-6.502098083496094,-47.90091705322266,15.46331787109375,2
1596230042.900333,19,0,102375.084734375,-1.385838246018505,1.431444564630361,1.364234600835528,0.2696539163589478,0.8798637986183167,0.2221610099077225,-0.2130173146724701,-0.03003811836242676,0.3765988945960999,2,0.6913864403536748,0.08798150347685674,-0.05590759040028831,0.7149254632362823,0.203107938170433,-0.9787418842315674,-0.02848809026181698,-6.874305725097656,-47.65287780761719,15.99078369140625,2
1596230042.93038,20,0,102375.1148315,-1.407771051565859,1.48574382983107,1.370163426178049,0.03334980458021164,1.24296510219574,0.05538161844015121,-0.1959362328052521,-0.03646755218505859,0.2597818970680237,2,0.694255798446597,0.09769361538010579,-0.04284962310946488,0.7117786520675601,0.198569655418396,-0.97994065284729,-0.01692968793213367,-7.842819213867188,-47.58798980712891,16.16329956054688,2
1596230042.960615,21,0,102375.1449285,-1.399036016812655,1.512255434750197,1.366689359308549,-0.02977743372321129,1.010779500007629,-0.1809247583150864,0.02029922604560852,-0.01764410734176636,-0.07683885097503662,2,0.6940240764836955,0.1113600468515247,-0.03176089766269702,0.7105777808779994,0.202345609664917,-0.9792423844337463,-0.01185904256999493,-8.264984130859375,-47.41897583007812,16.0750732421875,2
1596230042.99067,22,0,102375.1750255,-1.404534096560186,1.542189495851631,1.365158179971206,0.09707016497850418,0.5501781105995178,0.115208700299263,0.1875650882720947,0.04942315816879272,-0.234473705291748,2,0.694646814816164,0.1206049901322365,-0.02385840926238941,0.7087672072084373,0.2041080594062805,-0.9789308905601501,-0.005840477999299765,-8.710411071777344,-47.66690826416016,15.82666015625,2
1596230043.020984,23,0,102375.2051225,-1.430506055562969,1.575961963136363,1.371410537764302,0.2179423272609711,-0.07840574532747269,0.2302300781011581,0.2479809820652008,-0.009055554866790771,-0.2850701808929443,2,0.6969846892831586,0.121342126644141,-0.01909015160296662,0.7064870377913706,0.1980643719434738,-0.9801884293556213,0.001023137592710555,-8.94989013671875,-47.41522979736328,15.8153076171875,2
1596230043.050884,24,0,102375.2352205,-1.465679052798358,1.591191528086779,1.377950630653974,0.3293127417564392,-1.059937000274658,0.2247499525547028,0.1550932675600052,-0.02222931385040283,-0.3788301944732666,2,0.6995538254659615,0.11215483432181,-0.0238743394591549,0.7053196151161271,0.1916127800941467,-0.981462836265564,0.003908523358404636,-9.166679382324219,-47.31317901611328,16.1624755859375,2
1596230043.080983,25,0,102375.2653175,-1.548732563237447,1.642575001887873,1.38531335155028,0.5620933175086975,-0.8230828046798706,0.3292407989501953,-0.04308423399925232,0.1522696018218994,0.1657274961471558,2,0.7049207745239945,0.0984873228278548,-0.03244010390627383,0.701665497806666,0.1839457154273987,-0.982847273349762,0.01322610210627317,-8.890625,-47.08718872070312,17.3035888671875,2
1596230043.110998,26,0,102375.2954145,-1.618989400966783,1.695733605309641,1.394115034905796,0.2123425453901291,-0.3674787878990173,0.2753106653690338,-0.255480021238327,-0.03086233139038086,0.2488839626312256,2,0.709224565819399,0.08917233171753652,-0.03513085740436339,0.6984373281365687,0.1743939071893692,-0.9844323992729187,0.02190237864851952,-9.13885498046875,-46.85384368896484,17.59140014648438,2
1596230043.141102,27,0,102375.3255115,-1.63797685092699,1.707788237365539,1.395754905725768,0.0269179493188858,0.03138803690671921,-0.1827937960624695,-0.3950871825218201,-0.04520446062088013,0.1381832361221313,2,0.7102699904027572,0.08606793741508248,-0.03690276620930422,0.6976724552997718,0.1725163161754608,-0.9847193360328674,0.02378229796886444,-9.156806945800781,-46.68461608886719,18.15032958984375,2
1596230043.171161,28,0,102375.3556085,-1.654360431697137,1.731628091145094,1.384272271998314,0.2681175470352173,0.292142927646637,-0.4130837321281433,-0.1077596843242645,0.1549888253211975,0.09422516822814941,2,0.7115353267749576,0.09255233459589696,-0.03816681764634411,0.6954817164374181,0.1830509901046753,-0.9826547503471375,0.02969691157341003,-8.936103820800781,-46.74151611328125,18.24713134765625,2
1596230043.201376,29,0,102375.3857055,-1.688789913333647,1.769797027738204,1.375390925978254,0.2119901776313782,0.02833816036581993,-0.06927238404750824,0.09981170296669006,-0.03632533550262451,-0.03426921367645264,2,0.7140441719208921,0.09660764019373688,-0.03961572811323219,0.6922704775940622,0.1903319954872131,-0.9809690117835999,0.03838423267006874,-8.592071533203125,-46.49020385742188,18.56674194335938,2
1596230043.231663,30,0,102375.4158025,-1.703857214890528,1.78291296550668,1.373884284898035,0.03297010064125061,-0.03366688638925552,-0.115289144217968,-0.03502191603183746,-0.05491870641708374,0.03005838394165039,2,0.7150692654832783,0.09628178183142694,-0.04066612830999741,0.6911961183608695,0.1912573873996735,-0.9806753993034363,0.04118847101926804,-8.682357788085938,-46.51991271972656,18.822998046875,2
1596230043.26156,31,0,102375.4458995,-1.698715815785042,1.77995578505968,1.365677084125253,0.005736051592975855,0.127228245139122,-0.3631337881088257,-0.05295887589454651,0.03277599811553955,0.1112453937530518,2,0.7149544713872966,0.09993165433341969,-0.04280388835628637,0.6906674969818656,0.1992447525262833,-0.9790366888046265,0.04229246452450752,-8.382377624511719,-46.33382415771484,18.81253051757812,2
1596230043.291554,32,0,102375.4759975,-1.689508414941552,1.774498246183062,1.358389604854508,-0.06443370878696442,0.02941659279167652,-0.07814933359622955,0.05573198199272156,0.003398299217224121,0.0526740550994873,2,0.7145191415351497,0.1038541311545439,-0.04411383792860354,0.6904567903988279,0.206453949213028,-0.9775263667106628,0.04264656826853752,-8.01251220703125,-46.68765258789062,18.87808227539062,2
1596230043.321743,33,0,102375.5060945,-1.674975860521294,1.760482649482016,1.357192990909992,-0.1036270633339882,-0.02623084560036659,-0.1490218639373779,-0.01983977854251862,-0.01878517866134644,0.03367412090301514,2,0.7134708190525596,0.1046143004809942,-0.04451469045448805,0.6913997993946531,0.2081804722547531,-0.9772734045982361,0.03996952250599861,-8.091804504394531,-46.47522735595703,18.68154907226562,2
1596230043.351752,34,0,102375.5361915,-1.65351114679251,1.737599931310329,1.350098190470461,-0.2076364904642105,-0.1153348088264465,-0.2934087514877319,-0.03062589466571808,0.05917990207672119,0.0442885160446167,2,0.7118747172351098,0.1068052686787053,-0.0477245844768624,0.6924949768248667,0.2158720791339874,-0.9757448434829712,0.0363459587097168,-7.684989929199219,-46.55286407470703,18.63092041015625,2
1596230043.381967,35,0,102375.5662885,-1.604579443848375,1.688991051861642,1.346315546323908,-0.4510950148105621,0.05813359469175339,-0.05331747606396675,-0.07575660943984985,-0.06890970468521118,0.1684746742248535,2,0.7080441772568005,0.108618084948332,-0.04932325365085602,0.6960191490986863,0.2210466265678406,-0.9749098420143127,0.02624889090657234,-7.26416015625,-46.70375061035156,18.16921997070312,2
1596230043.411959,36,0,102375.5963855,-1.536853934247617,1.628157289704326,1.343080856064208,-0.4709590077400208,0.3429943025112152,-0.3618499636650085,-0.1702684462070465,0.06277090311050415,0.1271970272064209,2,0.7027371173915673,0.1123908184077578,-0.04826989317255187,0.7008558650728022,0.22538161277771,-0.9741846919059753,0.01294230483472347,-7.102981567382812,-46.92234802246094,17.71395874023438,2
1596230043.442127,37,0,102375.6264825,-1.48983225809005,1.596080899493324,1.33025535273732,-0.3208407759666443,0.311677098274231,-0.3281269669532776,0.09654359519481659,0.02322638034820557,0.0173879861831665,2,0.6986468405924079,0.1220820197829045,-0.04753067912488196,0.7033700485617391,0.2381519973278046,-0.9712092280387878,0.006022854708135128,-6.789794921875,-47.20249176025391,16.81793212890625,2
1596230043.472163,38,0,102375.6565795,-1.424204885547261,1.532413607466006,1.327117491938159,-0.6967208981513977,-0.2915440797805786,-0.0384989008307457,0.01486985385417938,-0.1011780500411987,-0.0144420862197876,2,0.6929007543514204,0.1235285435833917,-0.04761769545219224,0.708774826793321,0.2410965114831924,-0.9704569578170776,-0.00925848726183176,-6.399917602539062,-47.72809600830078,15.930419921875,2
1596230043.502351,39,0,102375.6866765,-1.340376439915465,1.441307111701011,1.314591893615285,-0.7140510082244873,-0.2087559551000595,-0.6665046215057373,-0.131294310092926,0.04622519016265869,0.07459986209869385,2,0.6842514662301957,0.1242527464057009,-0.05349881439097648,0.7165885487871381,0.2512894868850708,-0.9673587679862976,-0.03272237256169319,-6.141883850097656,-48.04415893554688,15.2713623046875,2
1596230043.53233,40,0,102375.7167745,-1.266788655925909,1.358088408827949,1.290665124915845,-0.8201149702072144,-0.5630902647972107,-0.6326691508293152,-0.03240776062011719,0.01912474632263184,-0.003154277801513672,2,0.6742308598623592,0.1273934577335541,-0.06348921277607594,0.7246741809970444,0.2702502608299255,-0.9610191583633423,-0.05836730822920799,-5.069366455078125,-48.44251251220703,14.03167724609375,2
1596230043.562561,41,0,102375.7468715,-1.197694876063295,1.272026207753627,1.264303506817111,-0.8819911479949951,-0.7817399501800537,-0.7600216865539551,-0.05540573596954346,-0.07273662090301514,0.001605093479156494,2,0.6627553978508135,0.1278705558766778,-0.07593829052937673,0.7339194461886897,0.2883504033088684,-0.9533976316452026,-0.0888088047504425,-4.101242065429688,-48.60053253173828,13.21514892578125,2
1596230043.59257,42,0,102375.7769685,-1.147504423454309,1.196515861669649,1.231351167792631,-0.696288526058197,-1.041922807693481,-0.8961805701255798,-0.03935602307319641,0.1228717565536499,-0.1163946986198425,2,0.650360398660439,0.1271421593248447,-0.09298720678569178,0.7431146970422116,0.3099128007888794,-0.9429395794868469,-0.1217324435710907,-2.32574462890625,-49.33670806884766,11.70285034179688,2
1596230043.622684,43,0,102375.8070655,-1.129268919849439,1.153465011800737,1.205793833082028,-0.5033479928970337,-0.6306243538856506,-0.5025365352630615,0.06323665380477905,0.05663913488388062,0.01451379060745239,2,0.6418812251065702,0.1250929274532182,-0.1082682541644587,0.7487444866458699,0.3263159990310669,-0.9341228604316711,-0.1446805000305176,-1.310218811035156,-49.09262084960938,11.28396606445312,2
1596230043.65274,44,0,102375.8371625,-1.10321786725941,1.117269580692901,1.186829563572323,-0.6048427224159241,-0.3093891441822052,-0.3403675556182861,0.0886911153793335,-0.08030408620834351,0.1726955771446228,2,0.6341341113426813,0.1257392489867515,-0.1159858143699604,0.7540628241560061,0.3367317020893097,-0.9271859526634216,-0.1641271412372589,-0.4740753173828125,-49.39379119873047,10.14865112304688,2
1596230043.682788,45,0,102375.8672595,-1.063377520969011,1.063103554596302,1.172478263242109,-0.6402955651283264,-0.7895017266273499,-0.1663482636213303,-0.01981553435325623,0.07011085748672485,-0.1502369046211243,2,0.6251333834704872,0.1221665089830384,-0.1223564031749265,0.7611258670672369,0.3389463126659393,-0.9217146635055542,-0.188567191362381,-0.153900146484375,-49.54415130615234,9.688873291015625,2
1596230043.712888,46,0,102375.8973565,-1.044485923121172,1.021755799708597,1.158581137718035,-0.35606649518013,-0.6917140483856201,-0.2885416746139526,-0.1714975833892822,0.07940453290939331,-0.09007799625396729,2,0.6179839385304839,0.1164260003722411,-0.1321581060147647,0.7662083095377649,0.3417563140392303,-0.9162355661392212,-0.2090816795825958,0.7320480346679688,-49.78998565673828,8.375274658203125,2
1596230043.743076,47,0,102375.9274535,-1.035333234973624,1.002250806153726,1.144578964123451,-0.3193470537662506,-0.1218739449977875,-0.4776637852191925,-0.2979569435119629,-0.03992766141891479,0.09552121162414551,2,0.6125916529300033,0.1159089238509277,-0.1387715061515294,0.7694406391699228,0.3483906090259552,-0.9105361104011536,-0.2225931733846664,1.144851684570312,-49.80677795410156,7.92181396484375,2
1596230043.773136,48,0,102375.9575515,-1.032386097192399,1.002138938357467,1.124459146591805,-0.4373569190502167,0.295579195022583,-0.4908579587936401,-0.1879703104496002,-0.009039163589477539,0.06033146381378174,2,0.6072222587927871,0.1226996065293522,-0.1435563829717618,0.7717626196125176,0.3637312054634094,-0.9020342826843262,-0.2324518710374832,2.042884826660156,-49.72650146484375,7.184844970703125,2
1596230043.803275,49,0,102375.9876485,-1.037912045358053,1.016979745608035,1.107167341877221,-0.06514954566955566,0.3232931196689606,-0.6782568693161011,-0.1626394391059875,0.04391354322433472,-0.08042550086975098,2,0.6041652499983856,0.131854510111285,-0.1462596982778032,0.7721443111146806,0.3803514838218689,-0.8944355249404907,-0.2351974844932556,2.432670593261719,-49.64143371582031,6.915924072265625,2
1596230043.833319,50,0,102376.0177455,-1.053913177753326,1.043430236435323,1.086600253641148,-0.108330562710762,0.3800690472126007,-0.594632089138031,0.212488055229187,0.0867081880569458,-0.03798931837081909,2,0.6019317609049208,0.1433367294889389,-0.1505330845863462,0.7710203721895661,0.4022523760795593,-0.8850494623184204,-0.2342654764652252,3.676353454589844,-49.70519256591797,6.701080322265625,2
1596230043.863521,51,0,102376.0478425,-1.067339354200403,1.059558250865318,1.077514372550766,-0.01171926781535149,0.001349363476037979,-0.1187315657734871,0.371161550283432,-0.002743899822235107,-0.3169081807136536,2,0.6018248131270419,0.148224672079785,-0.1535602260916992,0.7695814005696264,0.4129745960235596,-0.8807835578918457,-0.2316726744174957,4.052360534667969,-49.68585968017578,6.91656494140625,2
1596230043.893519,52,0,102376.0779395,-1.056092995184255,1.046608861123268,1.075901319643599,-0.1535630375146866,-0.1768602579832077,0.08549215644598007,0.1420491933822632,-0.07868409156799316,-0.213497519493103,2,0.5995890041723255,0.1470957595012075,-0.1535977619578938,0.7715332772781229,0.4111696183681488,-0.8800185918807983,-0.2377117276191711,4.346076965332031,-49.63420867919922,6.70684814453125,2
1596230043.923658,53,0,102376.108036375,-1.057817086240938,1.043139005005524,1.0774958670041,0.1972997784614563,-0.2631219029426575,0.0009989631362259388,0.01888787746429443,0.08794528245925903,-0.0424964427947998,2,0.5998566193178572,0.1447650329069921,-0.1548298003746938,0.7715199153072626,0.4091295599937439,-0.8807747960090637,-0.2384302467107773,4.255317687988281,-49.62284088134766,6.454833984375,2
1596230043.953772,54,0,102376.138133375,-1.062410765486912,1.035784382190746,1.080821079037196,0.02687878347933292,-0.510390043258667,0.1414982825517654,0.005959272384643555,-0.03200030326843262,0.1325091123580933,2,0.6004619828487525,0.1395576584765721,-0.1578226255191039,0.7714020587406057,0.4048430919647217,-0.8823444843292236,-0.2399381399154663,4.248558044433594,-49.74139404296875,6.644439697265625,2
1596230043.9844,55,0,102376.168230375,-1.051681059635111,1.014983944720639,1.081055276186334,-0.2870969176292419,-0.001595990499481559,-0.05075937882065773,-0.3219072222709656,-0.08065575361251831,0.4146530628204346,2,0.5981351076993516,0.1346686374794796,-0.1598419173400204,0.7736597232305836,0.3995895385742188,-0.8824546933174133,-0.2481974959373474,4.420173645019531,-49.54216003417969,6.3980712890625,2
1596230044.014055,56,0,102376.198328375,-1.039557500262209,1.017094344958677,1.068784811636063,-0.4767493605613708,0.7047913074493408,-0.3585138916969299,-0.1532432436943054,0.0005397796630859375,0.2741177082061768,2,0.5942355287853608,0.1427229055308958,-0.1581086822859402,0.7755745253937203,0.4092921018600464,-0.8766164183616638,-0.2530286312103271,4.407173156738281,-49.56580352783203,6.099517822265625,2
1596230044.044024,57,0,102376.228425375,-1.021130678977101,1.026385312798043,1.055437327275069,-0.4567061066627502,0.846335232257843,-0.0112940352410078,0.1545217335224152,-0.02824997901916504,0.1478469371795654,2,0.5900271771472871,0.1556972448471183,-0.1521043356239244,0.7774898631393703,0.4215974509716034,-0.8701158761978149,-0.2552525997161865,4.954597473144531,-49.65918731689453,5.65838623046875,2
1596230044.074176,58,0,102376.258522375,-0.9914628984631564,1.015336333773317,1.050598630200126,-0.589557945728302,0.1342703253030777,0.1720197200775146,0.1165235042572021,-0.01567775011062622,0.08854544162750244,2,0.5855405593479257,0.1615118701658263,-0.1451989914366507,0.781007940366191,0.4223239123821259,-0.867720901966095,-0.2621123492717743,4.621185302734375,-49.61425018310547,5.2847900390625,2
1596230044.104279,59,0,102376.288619375,-0.9626981662100844,1.001287560925024,1.042931030013192,-0.4591696262359619,0.7378641366958618,-0.1547328531742096,-0.1500933766365051,-0.0363813042640686,0.1095126271247864,2,0.5800456116878376,0.1665759046903194,-0.1402356181398607,0.7849417347816807,0.424190878868103,-0.8638842701911926,-0.2715991139411926,4.360160827636719,-49.84601593017578,4.02813720703125,2
1596230044.134265,60,0,102376.318716375,-0.9466193265809971,1.011073442772127,1.030172731078361,-0.3878977000713348,0.6131889224052429,-0.1240590810775757,0.1562542319297791,0.1741978526115417,-0.08055609464645386,2,0.5757183823399374,0.17864983614848,-0.1347364641629772,0.7864341524276901,0.4361331760883331,-0.857387900352478,-0.273265153169632,4.484268188476562,-49.73867034912109,3.953216552734375,2
1596230044.164437,61,0,102376.348813375,-0.9286544317136354,1.000417774194165,1.025830508568306,-0.4192792475223541,-0.1780316382646561,0.08103426545858383,0.1615062057971954,-0.1041527390480042,-0.08249419927597046,2,0.5721481216549315,0.1808157125804025,-0.1319540308779772,0.7890122337212776,0.4363261163234711,-0.8551450371742249,-0.2799043953418732,4.419624328613281,-49.6668701171875,3.077239990234375,2
1596230044.194438,62,0,102376.378910375,-0.9002411790361107,0.9701726545234906,1.016339413736353,-0.6900733113288879,-0.03719158843159676,-0.002855255268514156,-0.1104204654693604,-0.08169704675674438,0.1626941561698914,2,0.5648034124281751,0.1795124299684117,-0.1319611754004961,0.7945807458928238,0.4343384802341461,-0.8501864671707153,-0.2975447773933411,4.488479614257812,-49.78670501708984,2.71380615234375,2
1596230044.224698,63,0,102376.409007375,-0.8748979841385054,0.9622704638868862,1.007851838079705,-0.3126492202281952,0.9131304621696472,0.01883906498551369,-0.2169442772865295,0.2072003483772278,-0.05893057584762573,2,0.5594201243271532,0.1857637977545861,-0.1264322566395974,0.7978444125796559,0.4378787279129028,-0.8456873893737793,-0.3050818741321564,4.508399963378906,-49.64968872070312,1.59857177734375,2
1596230044.254682,64,0,102376.439105375,-0.866925922846795,0.9854983602495742,1.00301868642646,-0.1611728668212891,0.9475395679473877,-0.1555545777082443,-0.12160325050354,0.03592085838317871,-0.1104322075843811,2,0.5586071562384158,0.1985346561771111,-0.1180943743409596,0.7966151110894955,0.4482481479644775,-0.8430981636047363,-0.2970840632915497,4.499313354492188,-49.81055450439453,1.379425048828125,2
1596230044.284799,65,0,102376.469202375,-0.8690377180830657,1.004508549187382,0.9945210964703146,0.05063930526375771,0.1302929669618607,-0.2432755082845688,0.2314057648181915,0.03707259893417358,-0.477862536907196,2,0.5573685379606914,0.2077711645764783,-0.1159980976042334,0.7954344073130345,0.4598440527915955,-0.8384981155395508,-0.2923429012298584,4.762580871582031,-49.76534271240234,1.35504150390625,2
1596230044.315092,66,0,102376.499299375,-0.8831228452628864,1.014198397515752,0.9989114974285763,0.3663180470466614,-0.2542990446090698,0.1398657560348511,0.1218504309654236,0.01090925931930542,-0.2094789147377014,2,0.5607065807603432,0.2065071134970867,-0.1176496845655162,0.7931718567421073,0.4595251679420471,-0.8408823609352112,-0.2859258949756622,4.859916687011719,-49.82752990722656,1.464111328125,2
1596230044.345072,67,0,102376.529396375,-0.894793290900412,1.01608240454899,1.002575374623596,0.1643643230199814,-0.238064244389534,-0.1884581446647644,-0.1995998919010162,0.00832056999206543,-0.1044141054153442,2,0.5630982312644737,0.2029851100959258,-0.1207093758019292,0.7919258451927579,0.4574407935142517,-0.84285968542099,-0.2834348678588867,4.723526000976562,-49.77474212646484,1.981719970703125,2
1596230044.375037,68,0,102376.559493375,-0.9154329954053035,1.028773995931134,1.000291036923122,0.4160221219062805,-0.0133228711783886,-0.2533949613571167,0.02501004934310913,0.04566192626953125,-0.1602639555931091,2,0.5653060219502222,0.2028040794117953,-0.1259396330951608,0.7895814878390258,0.4626495540142059,-0.8416281938552856,-0.2785992026329041,4.943611145019531,-49.95054626464844,2.18865966796875,2
1596230044.405167,69,0,102376.589590375,-0.9401087034921261,1.047955185423701,1.005320787860406,0.4795701503753662,-0.155534952878952,0.1224019974470139,0.1673097014427185,0.01242411136627197,-0.05094140768051147,2,0.5704686801590425,0.2019579666169327,-0.1287623066572676,0.7856198528539143,0.4642341136932373,-0.8443338871002197,-0.2675569355487823,5.622596740722656,-49.68085479736328,2.977813720703125,2
1596230044.4352,70,0,102376.619687375,-0.95643660137591,1.05303880669427,1.01551418149906,0.3375317454338074,-0.3798578083515167,0.04499062895774841,-0.02946192026138306,-0.03959560394287109,0.05768895149230957,2,0.5752929984628181,0.1964125351324107,-0.1307458783813804,0.7831765666709635,0.4580857753753662,-0.8497517108917236,-0.2609201669692993,5.203514099121094,-49.51609039306641,3.50494384765625,2
1596230044.465409,71,0,102376.649784375,-0.9748235223936927,1.056827444459265,1.017912316773103,0.3446753025054932,-0.3129503130912781,-0.1120583713054657,0.00469517707824707,0.005002737045288086,0.01858097314834595,2,0.5779960648340615,0.1919126484688685,-0.1361443042644524,0.781380035669373,0.4572951793670654,-0.8510135412216187,-0.258180171251297,5.318595886230469,-49.46204376220703,3.876861572265625,2
1596230044.495395,72,0,102376.679881375,-0.9917440595469899,1.065740192034217,1.024569411161292,0.3752344250679016,-0.1087313368916512,0.2229207307100296,0.104691356420517,0.02216798067092896,-0.0004593133926391602,2,0.5820362548491538,0.1885738415559577,-0.13820148387062,0.7788285986915506,0.4546099603176117,-0.8544905781745911,-0.2513474225997925,5.426887512207031,-49.64054870605469,4.2861328125,2
1596230044.525918,73,0,102376.709979375,-1.002549154171333,1.070332874477717,1.037066589045365,0.3356374204158783,-0.2257388383150101,0.2314998060464859,-0.005610078573226929,-0.07146400213241577,0.04160225391387939,2,0.5867185023985748,0.1835880944677866,-0.1373632361642476,0.7766518975501487,0.4463551938533783,-0.8609155416488647,-0.2441136240959167,5.318244934082031,-49.38228607177734,5.009307861328125,2
1596230044.555583,74,0,102376.740076375,-1.014872685183014,1.074688894099426,1.044299317377462,0.2679912447929382,-0.1489033252000809,0.06087736040353775,0.06563544273376465,-0.01752573251724243,0.05615025758743286,2,0.5900554644617447,0.179544451031708,-0.1387112151953574,0.7748274227967344,0.4419265389442444,-0.8645726442337036,-0.2391966730356216,5.012275695800781,-49.64893341064453,5.24981689453125,2
1596230044.585822,75,0,102376.770173375,-1.023456856874536,1.078543442751525,1.054405409446187,0.3187705278396606,-0.09343687444925308,0.4458016157150269,0.1575833261013031,0.02157306671142578,0.03174632787704468,2,0.5937287216544438,0.175531139880018,-0.1378749769429289,0.7730883445942625,0.4351228177547455,-0.8696067929267883,-0.2333500534296036,4.675559997558594,-49.63059234619141,5.590576171875,2
1596230044.615819,76,0,102376.800270375,-1.02388098489768,1.07685740194817,1.072764886017104,0.2482040375471115,-0.05625320225954056,0.5176383256912231,0.02621519565582275,0.01086598634719849,0.07322561740875244,2,0.5984017600122803,0.1693450881887157,-0.133044788901249,0.7717102983050473,0.4205991625785828,-0.8785246610641479,-0.2264751493930817,4.188583374023438,-49.49967956542969,6.01849365234375,2
1596230044.645927,77,0,102376.830367375,-1.023657664700655,1.074794639452349,1.087437258217285,0.2251547127962112,-0.04142491146922112,0.385803759098053,-0.01075592637062073,-0.01886981725692749,0.04012197256088257,2,0.6020122775161735,0.164284972467116,-0.1291803785455856,0.7706516944661708,0.4087493419647217,-0.8854387998580933,-0.2211833298206329,3.616508483886719,-49.66027069091797,6.3260498046875,2
1596230044.676134,78,0,102376.860464375,-1.0228085390346,1.072029109298272,1.102475956829178,0.2459695786237717,-0.08483646064996719,0.519683837890625,0.016304612159729,0.009138643741607666,-0.0601082444190979,2,0.6055990222271814,0.1590300735251478,-0.1251791151156763,0.7696034547340728,0.3963968753814697,-0.8923277258872986,-0.2159185260534286,2.674530029296875,-49.77095794677734,6.610321044921875,2
1596230044.706149,79,0,102376.890561375,-1.024755458754467,1.073413198660191,1.121068999081511,0.3926874101161957,0.0668225884437561,0.5009369850158691,-0.06120806932449341,0.07927072048187256,-0.06219398975372314,2,0.6105258121885749,0.1534596229913357,-0.1199229050311699,0.7676762397250462,0.3820466697216034,-0.9005656838417053,-0.207416757941246,2.367942810058594,-49.90106964111328,6.99951171875,2
1596230044.736547,80,0,102376.920658375,-1.035962227548614,1.085592863898222,1.139527173667759,0.4775600731372833,0.04873809218406677,0.4549444019794464,-0.04974827170372009,0.02595269680023193,-0.1095922589302063,2,0.6166555419599302,0.1491817944225448,-0.1149039022586573,0.7643806155785926,0.3697755932807922,-0.9084359407424927,-0.1949614733457565,1.470062255859375,-49.78155517578125,7.716644287109375,2
1596230044.766385,81,0,102376.950756375,-1.054025045080944,1.103575702189908,1.159415444690817,0.5501975417137146,0.0649491623044014,0.5022068023681641,0.00564652681350708,0.03021341562271118,-0.09272629022598267,2,0.6237659556112674,0.1444397604138422,-0.1101442455019619,0.7602113616781729,0.3570179641246796,-0.9165695309638977,-0.1801063716411591,1.117210388183594,-49.60060119628906,8.3231201171875,2
1596230044.79638,82,0,102376.980853375,-1.080558211244597,1.129475025601865,1.181141940334536,0.7062798142433167,-0.01017115823924541,0.451350063085556,0.02842307090759277,0.03394591808319092,-0.1165401339530945,2,0.6320400218122647,0.1392764422610276,-0.1053448036886673,0.7550032188462795,0.3434725999832153,-0.9250404238700867,-0.1622549742460251,-0.07625579833984375,-49.64565277099609,9.281707763671875,2
1596230044.826608,83,0,102377.010950375,-1.116939869487763,1.161062664731759,1.201415354315151,0.6383945941925049,-0.1390478312969208,0.4699757695198059,0.1476582884788513,0.006584644317626953,-0.02489739656448364,2,0.6405675447912776,0.1332693376091023,-0.1026029036147776,0.7492563951082272,0.3311539888381958,-0.9325510263442993,-0.1438250094652176,-0.4901885986328125,-49.49687194824219,9.870361328125,2
1596230044.856606,84,0,102377.041047375,-1.146965210991706,1.181473894649705,1.225649959461506,0.6676998734474182,-0.3409754633903503,0.721344530582428,0.1056164503097534,0.05979055166244507,0.01580876111984253,2,0.6484810743464291,0.1235432739375195,-0.09950559444632995,0.7445185939925479,0.3130155205726624,-0.9410259127616882,-0.1284187138080597,-1.331985473632812,-49.63920593261719,11.2462158203125,2
1596230044.886876,85,0,102377.071144375,-1.17664713582523,1.195595696452617,1.253282490707946,0.5563393831253052,-0.5671839118003845,0.7317579984664917,0.1337437629699707,0.06557393074035645,0.1517125368118286,2,0.6562342849444328,0.1102327460527633,-0.09700278192499806,0.7401322485209856,0.2904867231845856,-0.9500145316123962,-0.1144106090068817,-2.036788940429688,-49.37435150146484,11.69857788085938,2
1596230044.916861,86,0,102377.1012406667,-1.191746903568747,1.194222804302056,1.280252001080223,0.3837582767009735,-0.4859959483146667,0.8643854856491089,0.04186707735061646,-0.04904669523239136,0.2054083943367004,2,0.6618978840360713,0.09600907238291145,-0.09427678798852535,0.7374180820637447,0.2664008736610413,-0.9580880999565125,-0.1053468957543373,-3.093795776367188,-48.96076965332031,12.8912353515625,2
1596230044.946945,87,0,102377.1313376667,-1.191065632578828,1.181571898828309,1.309388574791581,0.3661650121212006,-0.2306101322174072,0.8213160037994385,-0.1948326230049133,0.02168244123458862,0.1174216866493225,2,0.6665012157370321,0.08210255301164324,-0.08875835255633008,0.7356338342313471,0.2391099333763123,-0.9660271406173706,-0.09807059913873672,-4.484657287597656,-48.71516418457031,13.65875244140625,2
1596230044.977012,88,0,102377.1614346667,-1.203631464529661,1.194645832859656,1.330532609743755,0.3448169231414795,0.3801093697547913,0.4499738812446594,-0.1690841615200043,0.1216971874237061,0.05887556076049805,2,0.6712285192820729,0.07580236414934305,-0.08211035058272931,0.7327784383202063,0.2213222980499268,-0.971275269985199,-0.08741255104541779,-5.015090942382812,-48.59599304199219,13.9046630859375,2
1596230045.007145,89,0,102377.1915316667,-1.226444334315285,1.232732526299377,1.347228715023475,0.2848889529705048,0.5141278505325317,0.5437094569206238,-0.1405230462551117,-0.1073543429374695,0.07181626558303833,2,0.6762952992785605,0.07654054194928755,-0.07212187709685969,0.7290847489605067,0.2091604620218277,-0.9751126766204834,-0.07353242486715317,-6.348487854003906,-48.33843994140625,14.4271240234375,2
1596230045.037181,90,0,102377.2216296667,-1.226272734798022,1.243534819476587,1.364901586700129,0.2501488327980042,0.2158161401748657,0.4335017502307892,-0.1325724422931671,0.07355594635009766,-0.03377491235733032,2,0.6793852975507126,0.07467590262396887,-0.06253453821864741,0.7272884051814305,0.1935919225215912,-0.9788784384727478,-0.06571825593709946,-6.775985717773438,-48.36385345458984,14.5623779296875,2
1596230045.067343,91,0,102377.2517266667,-1.278479372991049,1.301967421111678,1.376158423111234,0.4928107559680939,0.1100469678640366,0.2337799817323685,0.01498574018478394,0.08333247900009155,-0.08774435520172119,2,0.6846871260667355,0.0742846429146968,-0.0577550542289007,0.7227376978938037,0.1864649057388306,-0.9811177849769592,-0.05137066170573235,-7.733612060546875,-48.0811767578125,15.24526977539062,2
1596230045.097423,92,0,102377.2818236667,-1.334635494005778,1.353091020130353,1.389480268489373,0.4561112821102142,-0.2333903312683105,0.3677277266979218,-0.09163454174995422,-0.04781150817871094,-0.08922582864761353,2,0.6897696747204757,0.06887413243137261,-0.05587788227003815,0.7185763198523807,0.1760683804750443,-0.9836072325706482,-0.03894830122590065,-8.171356201171875,-47.59973907470703,15.5919189453125,2
1596230045.127549,93,0,102377.3119206667,-1.393948928644022,1.405155204829013,1.398790158141828,0.2817943394184113,-0.0933433324098587,0.09521456807851791,-0.1893868446350098,0.09761577844619751,0.05548059940338135,2,0.6941319878794124,0.0637971251085539,-0.05590241887728198,0.7148324958474381,0.1688158363103867,-0.9852433800697327,-0.02822142094373703,-8.302238464355469,-47.41848754882812,16.35577392578125,2
1596230045.157582,94,0,102377.3420176667,-1.425972665107264,1.439241209856245,1.402551040072109,0.2527786493301392,0.4238584935665131,0.1800597608089447,-0.1110693216323853,0.0002235174179077148,0.003272593021392822,2,0.6964065415240074,0.06352181432506113,-0.05417278310241336,0.7127750557323069,0.1660060882568359,-0.9858801364898682,-0.02196581661701202,-8.497718811035156,-47.48165893554688,16.6085205078125,2
1596230045.187772,95,0,102377.3721146667,-1.485031809757179,1.514761714086614,1.41215754322302,0.3288807272911072,0.5169721841812134,0.296221137046814,-0.04882979393005371,0.002982974052429199,-0.02627360820770264,2,0.7008365901047883,0.06636545150920112,-0.0454101030797322,0.7087747509634117,0.1577264368534088,-0.987443208694458,-0.008847401477396488,-9.236221313476562,-47.01598358154297,17.18008422851562,2
1596230045.217765,96,0,102377.4022116667,-1.544365180187179,1.591793117677884,1.417729570994736,0.2448744177818298,0.5636059045791626,0.1809930056333542,0.2709551453590393,0.0446619987487793,0.06918096542358398,2,0.7046917939143396,0.07078161294371718,-0.03734630172840608,0.7049855058872244,0.1524352878332138,-0.9883081316947937,0.003201122395694256,-9.518211364746094,-46.84290313720703,17.1861572265625,2
1596230045.247995,97,0,102377.4323086667,-1.586108023378527,1.636072230901688,1.432357477954382,0.1250833719968796,-0.1277998983860016,0.7708367109298706,0.1271185278892517,-0.1300500631332397,0.07380104064941406,2,0.7071634482631103,0.06648753843647812,-0.03124578030038722,0.7032232433860522,0.1377029120922089,-0.9904326200485229,0.009001471102237701,-10.56768035888672,-46.82833099365234,17.5501708984375,2
1596230045.277967,98,0,102377.4624066667,-1.587751972249165,1.631408348747028,1.451764796314227,-0.09975806623697281,-0.222581759095192,0.3045859038829803,-0.2202441096305847,0.0604783296585083,0.09299826622009277,2,0.707317469313641,0.05743407230526137,-0.02662145417057654,0.7040558929496066,0.118533231317997,-0.9929240942001343,0.007193350233137608,-11.05744171142578,-46.66345977783203,17.8485107421875,2
1596230045.307937,99,0,102377.4925036667,-1.574941531227899,1.614665915850388,1.449864767529501,-0.09464570134878159,-0.04014266282320023,-0.2776020765304565,-0.2710254490375519,0.006812095642089844,0.09378170967102051,2,0.7067010598553327,0.0567353883193556,-0.02869918386449999,0.7046495762713567,0.1205206215381622,-0.9926967024803162,0.00529058463871479,-11.09407043457031,-46.37432861328125,17.81707763671875,2
1596230045.338264,100,0,102377.5226006667,-1.525114459207182,1.568600420393949,1.44376588805491,-0.2190595865249634,0.2726733684539795,-0.08222779631614685,0.03255239129066467,-0.008646607398986816,0.0772700309753418,2,0.7044398218986643,0.06021161079785095,-0.02952681362048248,0.7065885266639395,0.1266893893480301,-0.9919424653053284,-0.0002781985094770789,-10.93376922607422,-46.54150390625,17.45599365234375,2
1596230045.371472,101,0,102377.5526976667,-1.497772217833202,1.552163107985764,1.448430602901146,-0.06911366432905197,0.2284926772117615,0.4459695219993591,0.2856482863426208,0.02238285541534424,0.02281999588012695,2,0.703542021821184,0.06238192864690767,-0.02399845508165788,0.7075034332258265,0.1220386996865273,-0.992522656917572,-0.002274237107485533,-11.36916351318359,-46.59995269775391,17.17715454101562,2
1596230045.398355,102,0,102377.5827946667,-1.439524674785865,1.492375928481687,1.463889300958626,-0.3699803054332733,-0.2539159059524536,0.4228006899356842,0.1242315173149109,-0.06751501560211182,0.04488635063171387,2,0.7018965792538296,0.05622849632560145,-0.01891473496007889,0.709803985511578,0.1063748002052307,-0.9942908883094788,-0.008359096013009548,-12.21452331542969,-46.76342010498047,16.92391967773438,2
1596230045.430747,103,0,102377.6128916667,-1.325665265620098,1.369111475695242,1.472299014533701,-0.2469521909952164,-0.3168183863162994,0.3557082414627075,0.01330271363258362,0.05291116237640381,0.02406144142150879,2,0.6983704856014655,0.04928569173360176,-0.01860424503480723,0.7137951323866065,0.09634508192539215,-0.9951530694961548,-0.01969917118549347,-12.25547027587891,-46.72177124023438,16.69754028320312,2
1596230045.458555,104,0,102377.6429886667,-1.213788956792737,1.251483839659233,1.48328335139027,-0.2454008311033249,-0.04382513463497162,0.4629956781864166,-0.06563839316368103,0.02222204208374023,0.1035734415054321,2,0.6960432731801283,0.04249236993987812,-0.01586514721147869,0.7165657055114363,0.08298280835151672,-0.9961732029914856,-0.02743632160127163,-12.88539886474609,-46.78404235839844,16.20657348632812,2
1596230045.490763,105,0,102377.6730856667,-1.084598496963433,1.124337057363856,1.491933661802822,-0.1971946656703949,-0.02203633263707161,0.3792667984962463,-0.02300387620925903,0.004914402961730957,-0.06802773475646973,2,0.6938851637708835,0.03893584236144168,-0.01086010172859692,0.7189501216317928,0.07105718553066254,-0.996891975402832,-0.0340147577226162,-13.31319427490234,-46.54941558837891,16.24383544921875,2
1596230045.518735,106,0,102377.7031826667,-0.9350953385444034,0.9711635553453496,1.499474522559435,-0.217136338353157,-0.1091976538300514,0.3164803683757782,-0.1556919813156128,0.06090748310089111,0.02483558654785156,2,0.6919418296333353,0.03329591838991786,-0.007809439234444548,0.7211427899339029,0.05882957950234413,-0.9974576830863953,-0.04021577164530754,-13.84489440917969,-46.67145538330078,15.62747192382812,2
1596230045.551065,107,0,102377.7332806667,-0.8116062068600786,0.8471430320014048,1.498149412766755,-0.2558223009109497,0.05002390593290329,0.09510387480258942,-0.1615110635757446,0.02240443229675293,0.09667354822158813,2,0.6891867631088303,0.03149377489952393,-0.006383349913672787,0.7238708708939788,0.05439349263906479,-0.9973623752593994,-0.04805949702858925,-14.21963500976562,-46.73725128173828,15.56582641601562,2
1596230045.579271,108,0,102377.7633776667,-0.7050902718163862,0.7485400358464109,1.497742797030162,-0.213793620467186,0.3893150091171265,0.1872054934501648,-0.139805793762207,0.001988887786865234,-0.01944810152053833,2,0.6871712937156467,0.03250928576752449,-0.001808572154335331,0.7257654512912687,0.04967382922768593,-0.997332751750946,-0.05347751826047897,-14.34889984130859,-46.52695465087891,15.08099365234375,2
1596230045.610229,109,0,102377.7934746667,-0.6356390195845713,0.6881797224073938,1.49269165013273,-0.2294781357049942,0.1657306700944901,-0.1614805459976196,-0.1646358072757721,0.0446319580078125,0.008109927177429199,2,0.6845463395885617,0.03552796765628624,0.001591278408386021,0.7281014100811157,0.04955732077360153,-0.9969514012336731,-0.06026814505457878,-14.58196258544922,-46.76585388183594,14.7998046875,2
1596230045.639158,110,0,102377.8235716667,-0.6355745787883211,0.6902773040235429,1.4842498312982,-0.198034256696701,0.03247241675853729,-0.130823165178299,-0.05579680204391479,0.03362917900085449,0.0007526278495788574,2,0.682070437696734,0.03814514352952142,0.000494510191840658,0.7302907498846462,0.05503951013088226,-0.9962571859359741,-0.06664973497390747,-14.48175811767578,-46.95532989501953,14.43801879882812,2
1596230045.670839,111,0,102377.8536686667,-0.6281687469026184,0.6837318223218066,1.478391867277518,-0.1444020867347717,-0.01391509454697371,-0.1106452420353889,-0.04892641305923462,-0.02090191841125488,-0.1255406737327576,2,0.6801990961442613,0.03953963897726381,-0.0002975721325370051,0.7319601586573448,0.05828769877552986,-0.9957337379455566,-0.07153161615133286,-14.44321441650391,-47.09799957275391,14.12875366210938,2
1596230045.699326,112,0,102377.8837656667,-0.6427906647982601,0.6986504606674079,1.472150476947409,-0.102228544652462,-0.03526059538125992,-0.2530207633972168,-0.0615743100643158,0.08118677139282227,-0.03000980615615845,2,0.6786610110162583,0.04139165118340421,-0.001945982508410771,0.7332818012930957,0.0633448138833046,-0.9951384663581848,-0.07541192322969437,-14.34957122802734,-47.01750946044922,13.92941284179688,2
1596230045.73061,113,0,102377.9138626667,-0.6909300862101366,0.7396761939257257,1.464218860499859,-0.119814470410347,-0.3767670691013336,-0.2454371005296707,0.08020919561386108,-0.03696131706237793,0.007698595523834229,2,0.6774619829684634,0.04190912816977171,-0.007492737468037081,0.7343246181310148,0.07170189917087555,-0.9943259954452515,-0.07857777178287506,-13.87448120117188,-46.9945068359375,13.82766723632812,2
1596230045.759578,114,0,102377.9439596667,-0.6814817739030643,0.7221481308004085,1.458109960413657,-0.1737234443426132,-0.08119314908981323,-0.04227933660149574,0.02661365270614624,0.01729321479797363,0.141645610332489,2,0.6754295845159105,0.04006170640957696,-0.01135386699740265,0.7362479675716885,0.07432817667722702,-0.9936575889587402,-0.08437987416982651,-13.55971527099609,-47.33004760742188,13.72222900390625,2
1596230045.790902,115,0,102377.9740576667,-0.6792697066637147,0.7194909190064656,1.454496460569797,-0.09545934200286865,0.01457471400499344,-0.1209826543927193,-0.04623532295227051,-0.0003986358642578125,-0.02141755819320679,2,0.6743210427852538,0.04065017118813302,-0.01225947993812493,0.7372167162212993,0.07646962255239487,-0.9932447671890259,-0.08727739006280899,-13.40602874755859,-47.46185302734375,13.7252197265625,2
1596230045.819741,116,0,102378.0041546667,-0.6816934211521731,0.7213212149462523,1.447758651035483,-0.1582835018634796,-0.09228108078241348,-0.1210605800151825,0.0250852108001709,0.01938581466674805,-0.01206040382385254,2,0.6724232910719796,0.04203898410335505,-0.0140727111698965,0.7388378921012667,0.08104562759399414,-0.992440402507782,-0.09215928614139557,-13.30615997314453,-47.41944122314453,13.574462890625,2
1596230045.85097,117,0,102378.0342516667,-0.6765885260409098,0.7123569583224327,1.444041289016278,-0.1621141582727432,-0.1500937193632126,-0.07035675644874573,-0.01757910847663879,0.01679575443267822,0.02853423357009888,2,0.6711624330240306,0.04128108208753031,-0.01604108388685394,0.7399860809686971,0.08262719959020615,-0.991977334022522,-0.09567372500896454,-13.02708435058594,-47.76888275146484,13.27886962890625,2
1596230045.879899,118,0,102378.0643486667,-0.6762076227278306,0.708144897600977,1.437129924514072,-0.1582652777433395,-0.106463223695755,-0.1629540622234344,0.05562791228294373,0.005677580833435059,-0.002793431282043457,2,0.6690829478078727,0.04140438638545205,-0.01887270868642371,0.7417935014112451,0.08668182790279388,-0.9910799264907837,-0.1012273728847504,-13.07746124267578,-47.95262145996094,13.09307861328125,2
1596230045.910678,119,0,102378.0944456667,-0.6513084552123984,0.6806208338243723,1.4336611183074,-0.1442617923021317,-0.1007289886474609,0.1695517301559448,-0.01585015654563904,-0.0415341854095459,-0.09600609540939331,2,0.66727503629222,0.04026981664155221,-0.01959226762829092,0.743463785035207,0.08602516353130341,-0.9906116724014282,-0.1062447354197502,-12.80734252929688,-47.8251953125,13.06051635742188,2
1596230045.940131,120,0,102378.1245426667,-0.6334924293762282,0.6601051126821712,1.430580810590872,-0.1196653470396996,0.0001353202387690544,-0.2291810363531113,-0.082124263048172,0.06650900840759277,0.05731219053268433,2,0.6657788741586967,0.03923609404316614,-0.0204648762256085,0.7448357566795072,0.08569905906915665,-0.9901859164237976,-0.1103980392217636,-12.73001098632812,-47.78086090087891,12.94442749023438,2
1596230045.970915,121,0,102378.1546396667,-0.6548478123367983,0.6781621496657378,1.423295217145969,-0.1628444939851761,-0.1140216961503029,-0.05733173340559006,0.08952373266220093,-0.02137184143066406,0.02412283420562744,2,0.6641851029142485,0.04043204247984875,-0.02399149812296697,0.7460883013508003,0.09220133721828461,-0.9891414046287537,-0.114446796476841,-12.36972808837891,-47.85298919677734,12.55560302734375,2
1596230046.000381,122,0,102378.1847366667,-0.6032745792513661,0.6252977774281785,1.422067362036759,-0.1598509550094604,-0.07789593189954758,0.1994467079639435,-0.01052865386009216,0.01151049137115479,0.003712713718414307,2,0.6621786258619424,0.03804478222798754,-0.02251538981784912,0.748040912101444,0.0867365300655365,-0.9889602065086365,-0.1201441213488579,-12.36454772949219,-47.74680328369141,12.3321533203125,2
1596230046.030472,123,0,102378.2148336667,-0.5997724426341022,0.6206936878166879,1.419242884415357,-0.03228864818811417,0.03856046497821808,-0.2057678252458572,0.06338432431221008,0.04813098907470703,-0.01221364736557007,2,0.66116981848481,0.03805167592084605,-0.02330083559925022,0.7489082119764233,0.08780604600906372,-0.9885377287864685,-0.1228130832314491,-12.54473114013672,-47.83670806884766,12.12533569335938,2
1596230046.060721,124,0,102378.2449316667,-0.5933145780450499,0.6101798046124762,1.417778226743929,-0.1113939210772514,-0.3730338215827942,0.2870039343833923,0.1756578981876373,-0.0584176778793335,-0.0354570746421814,2,0.6604593481580194,0.03654055373672929,-0.02465006624989174,0.7495669589422241,0.08733991533517838,-0.9883155822753906,-0.1249164715409279,-12.467529296875,-48.16641998291016,12.11029052734375,2
1596230046.090774,125,0,102378.2750286667,-0.5338509649552157,0.5380915702260807,1.421338093618348,0.01677358895540237,-0.4315331280231476,0.1840019971132278,-0.04787617921829224,0.05391180515289307,0.02190893888473511,2,0.6597424656329993,0.02845479630996925,-0.02546460535050071,0.7505209421476653,0.07631200551986694,-0.9888519048690796,-0.1278604120016098,-12.64605712890625,-48.02545928955078,12.071044921875,2
1596230046.121038,126,0,102378.3051256667,-0.5242559412332947,0.5200326395658676,1.42250515590544,-0.09704090654850006,-0.1063960865139961,0.03383763134479523,-0.1914575099945068,-0.0003714561462402344,0.05588489770889282,2,0.6597611974083475,0.02463537070102279,-0.02761348830238547,0.7505636428158929,0.07341744005680084,-0.9890249967575073,-0.1282165199518204,-12.74698638916016,-47.87830352783203,12.26535034179688,2
1596230046.151123,127,0,102378.3352226667,-0.5036920131310468,0.5014083063189911,1.418266671535565,-0.1298050582408905,0.1904308348894119,-0.05559872835874557,-0.1993510723114014,0.0335923433303833,-0.04606938362121582,2,0.6578374089302406,0.02514437178544338,-0.0267545035415212,0.7522644080932879,0.07303065806627274,-0.9883899092674255,-0.1332354098558426,-12.62236785888672,-47.95767211914062,12.1153564453125,2
1596230046.180858,128,0,102378.3653196667,-0.4883627018806244,0.4980459842638414,1.414964410957994,-0.07325409352779388,0.493924081325531,-0.06016366928815842,-0.08180946111679077,0.02444159984588623,0.01616752147674561,2,0.6564734534822084,0.02947156484165639,-0.02264525323462835,0.7534330097409143,0.0741417184472084,-0.9878827333450317,-0.1363480687141418,-12.81056976318359,-47.93350982666016,11.86175537109375,2
1596230046.227339,129,0,102378.3954166667,-0.5380644316038272,0.5581427633950832,1.418349827996471,0.3633719682693481,0.1461107134819031,-0.1904393881559372,0.08349886536598206,0.005635499954223633,-0.05615293979644775,2,0.6590598499307085,0.0351354930297865,-0.02097943401857061,0.7509763829768907,0.08042525500059128,-0.9884025454521179,-0.1288112252950668,-12.93870544433594,-48.05401611328125,11.69430541992188,2
1596230046.241125,130,0,102378.4255136667,-0.5585885699977569,0.5749380909752634,1.417899004847194,-0.2681356966495514,-0.2321420460939407,0.02434881404042244,0.07477092742919922,-0.004535079002380371,0.02981281280517578,2,0.6594574143318436,0.03475873169938209,-0.02323176278469047,0.7505783919943959,0.08281902223825455,-0.9883339405059814,-0.1278154999017715,-12.75127410888672,-48.08464050292969,12.08505249023438,2
1596230046.289249,131,0,102378.4556106667,-0.5149779608478319,0.5314554414178548,1.413679164030717,-0.1015954315662384,0.2511435449123383,0.1630564630031586,-0.04807960987091064,-0.0208507776260376,0.03145849704742432,2,0.6568337998911123,0.03353536647106392,-0.02192009400414241,0.752970283986475,0.0792979896068573,-0.9876824617385864,-0.1348894834518433,-12.82479095458984,-48.01296234130859,11.74752807617188,2
1596230046.301295,132,0,102378.4857086667,-0.4955782842788628,0.5214526172161287,1.415823983297087,0.08245128393173218,0.246397078037262,0.06581005454063416,-0.01901227235794067,0.03908801078796387,0.001463472843170166,2,0.6571154969641416,0.03577039087159231,-0.01752989458383702,0.7527367007343038,0.07688970118761063,-0.9880157709121704,-0.1338393986225128,-13.01934051513672,-47.90795135498047,11.59716796875,2
1596230046.350041,133,0,102378.5158056667,-0.4892455399794686,0.5214205185541195,1.416430678040093,-0.1505955010652542,0.1461832821369171,0.02521209046244621,0.04908996820449829,-0.005601286888122559,0.01142066717147827,2,0.6572027043062993,0.03773539014576463,-0.01505295249472804,0.7526181152144582,0.07658635824918747,-0.988109290599823,-0.1333212852478027,-13.12477874755859,-48.01663970947266,11.65008544921875,2
1596230046.361505,134,0,102378.5459026667,-0.4760365048794292,0.5086105509859999,1.411847404289882,-0.08234789967536926,-0.1318182796239853,-0.0487801805138588,0.01201730966567993,0.008810758590698242,-0.01604372262954712,2,0.6553105622377117,0.03801476600842643,-0.01505516188790018,0.7542521726927479,0.07707705348730087,-0.9873942136764526,-0.1382458955049515,-13.33512878417969,-48.04734039306641,11.35882568359375,2
1596230046.408073,135,0,102378.5759996667,-0.497110840982562,0.5225806403017984,1.412159465344319,0.1358725726604462,-0.2688759863376617,-0.1333123445510864,-0.03576621413230896,0.03214597702026367,-0.04465693235397339,2,0.6559243555918849,0.03632029052346386,-0.01836752709500439,0.7537285041347083,0.07884669303894043,-0.9874435663223267,-0.1368881464004517,-13.06686401367188,-47.97870635986328,11.380859375,2
1596230046.423557,136,0,102378.6060966667,-0.525304958219228,0.5432132010093568,1.411724404096399,0.04685972630977631,-0.2304732501506805,-0.1308029294013977,-0.09669795632362366,0.01367425918579102,-0.005282342433929443,2,0.6564910425640038,0.03491905913261353,-0.02229622016903071,0.7531952302055446,0.08187627792358398,-0.9873747229576111,-0.1356003433465958,-12.77507781982422,-48.1314697265625,11.58203125,2
1596230046.466792,137,0,102378.6361936667,-0.5505715417453698,0.5663656381627927,1.413841505374894,0.1411338448524475,0.05174147710204124,0.03839204832911491,0.02513507008552551,0.006779193878173828,0.01772063970565796,2,0.6578957639093017,0.03494120873239928,-0.02380758859219295,0.7519212341864926,0.08387189358472824,-0.9877078533172607,-0.1319045573472977,-12.56787872314453,-48.05628967285156,11.73410034179688,2
1596230046.481944,138,0,102378.6662906667,-0.5265834194725394,0.5457086401304322,1.415312127624096,-0.1678599268198013,0.192799836397171,0.1301075369119644,0.00287628173828125,-0.001152396202087402,0.009323716163635254,2,0.6577279150128371,0.03479411182422479,-0.02131158964833102,0.7521496939121568,0.08037521690130234,-0.9879366755485535,-0.1323667168617249,-12.75678253173828,-47.990234375,11.80014038085938,2
