loggingTime,loggingSample,identifierForVendor,motionTimestamp_sinceReboot,motionYaw,motionRoll,motionPitch,motionRotationRateX,motionRotationRateY,motionRotationRateZ,motionUserAccelerationX,motionUserAccelerationY,motionUserAccelerationZ,motionAttitudeReferenceFrame,motionQuaternionX,motionQuaternionY,motionQuaternionZ,motionQuaternionW,motionGravityX,motionGravityY,motionGravityZ,motionMagneticFieldX,motionMagneticFieldY,motionMagneticFieldZ,motionMagneticFieldCalibrationAccuracy
1596229993.150111,1,0,102325.333449,-0.7532174957939509,0.8400195274711887,1.33370696455957,-0.2644290030002594,0.1961876600980759,0.06596098840236664,-0.05006814002990723,0.0304640531539917,0.02629727125167847,2,0.6430166660341035,0.09025750631332138,-0.02932908281048935,0.7599492493751789,0.1749004274606705,-0.9720257520675659,-0.1567662954330444,-9.168174743652344,-49.06827545166016,9.39447021484375,2
1596229993.184961,2,0,102325.363547,-0.7521320402681893,0.840483323369138,1.330826906004814,0.1339810341596603,-0.05819012224674225,-0.1746135503053665,-0.05416229367256165,0.02600538730621338,-0.04049605131149292,2,0.6421460399266292,0.09150012231867058,-0.02949566672426085,0.7605302350648142,0.1770582646131516,-0.9713452458381653,-0.1585523784160614,-9.023269653320312,-49.24417877197266,9.346893310546875,2
1596229993.20985,3,0,102325.393646,-0.765071826851461,0.8524657061781257,1.330528315470316,-0.04586675018072128,0.003322239965200424,0.06180857867002487,0.07711172103881836,0.004357516765594482,0.02583402395248413,2,0.6428343068038789,0.09197249771819296,-0.03064060934321561,0.7598462071620888,0.1791635751724243,-0.9712742567062378,-0.1566102206707001,-8.911705017089844,-49.15791320800781,9.243377685546875,2
1596229993.248069,4,0,102325.423744,-0.7471606383586472,0.8352853439084568,1.332850178378632,-0.03778500854969025,0.04662138968706131,0.176175057888031,-0.04061675071716309,-0.03716874122619629,-0.02045589685440063,2,0.6424272568116217,0.09061746787560276,-0.02876439323479568,0.7604263629267405,0.1747738867998123,-0.9718241095542908,-0.158151388168335,-9.165412902832031,-49.40050506591797,9.438995361328125,2
1596229993.269945,5,0,102325.453843,-0.7394295982129876,0.8311380221162045,1.334316936541665,0.02140143886208534,0.1567918211221695,-0.03435744345188141,-0.07878494262695312,0.06468212604522705,0.01307100057601929,2,0.6424427001465887,0.09116155324179667,-0.02678923633683739,0.760420429838519,0.1730633080005646,-0.9721688032150269,-0.1579138934612274,-9.468376159667969,-49.20706939697266,9.31585693359375,2
1596229993.305977,6,0,102325.483941,-0.7441245622460932,0.8406088791923249,1.333562601568908,-0.0338468886911869,0.1467504352331161,0.04815815016627312,0.06792651116847992,-0.02038204669952393,0.03533625602722168,2,0.6425655119615732,0.09343988758970614,-0.0257208508405008,0.7600769858954772,0.1750976741313934,-0.9719918370246887,-0.1567571014165878,-9.380683898925781,-49.34604644775391,9.157867431640625,2
1596229993.330538,7,0,102325.514039,-0.7265663216449909,0.8236343584252599,1.336604797799475,0.01024583168327808,-0.1302836686372757,0.1737909018993378,0.03474675118923187,-0.00525742769241333,-0.06113940477371216,2,0.6424250516287456,0.09187988959141108,-0.02373920082349901,0.7604502487167036,0.1702414900064468,-0.9727022647857666,-0.1576962769031525,-9.612838745117188,-49.22152709960938,9.200531005859375,2
1596229993.368904,8,0,102325.544138,-0.7291566999204442,0.8231096483309503,1.336716648103295,-0.01119036320596933,-0.08689455687999725,-0.2186092436313629,-0.08500722050666809,0.02809381484985352,0.02374553680419922,2,0.6425696844085825,0.09082092462379887,-0.0248649176744315,0.7604192612472257,0.170078843832016,-0.9727281928062439,-0.1577115207910538,-9.540351867675781,-49.07779693603516,9.18377685546875,2
1596229993.390306,9,0,102325.574236,-0.7531481657576172,0.8445053287356826,1.330058897531805,0.01924325525760651,-0.03288154304027557,-0.2543445527553558,0.036211296916008,0.01227056980133057,-0.05606800317764282,2,0.6420308335865839,0.09289462692385039,-0.02878505144438476,0.7604855748611713,0.1782518327236176,-0.9711624383926392,-0.1583339869976044,-9.362052917480469,-49.08440399169922,9.154571533203125,2
1596229993.426134,10,0,102325.604334,-0.747986992124724,0.8363092763701652,1.330376512573148,0.01942621916532516,-0.310565173625946,0.3425907492637634,0.09519869089126587,-0.007275819778442383,-0.04840856790542603,2,0.641765422619458,0.09135479796379264,-0.02937234000941757,0.760873577999903,0.1767192035913467,-0.9712380766868591,-0.1595828831195831,-9.149635314941406,-49.07466125488281,9.3248291015625,2
1596229993.450838,11,0,102325.634433,-0.7342385283100823,0.8145358286068206,1.341533312156097,0.1829294413328171,-0.1434750854969025,0.1315593272447586,-0.1763051152229309,0.03891897201538086,-0.1078335046768188,2,0.6440833979861931,0.08475262751715115,-0.02836165446931171,0.7597165205619094,0.1653104871511459,-0.9738341569900513,-0.155947133898735,-9.597808837890625,-49.25925445556641,9.49090576171875,2
1596229993.487552,12,0,102325.664531,-0.7728090330546908,0.852693720069983,1.341265380254145,0.352013885974884,0.1669576913118362,-0.3192101418972015,-0.1363905519247055,0.03936105966567993,-0.1647797226905823,2,0.6462255906314375,0.08685153642107188,-0.03075102295951032,0.7575642182191884,0.1713354289531708,-0.9737732410430908,-0.1496986001729965,-9.404571533203125,-49.1805419921875,9.572479248046875,2
1596229993.51091,13,0,102325.694629,-0.8306660855328026,0.9156181033756013,1.347344514307374,0.5428782105445862,0.1404502689838409,-0.02814409509301186,-0.1893804520368576,0.01990067958831787,-0.1551198959350586,2,0.6514170365483358,0.09025639841145666,-0.03057873555598906,0.7527115098610669,0.1757130771875381,-0.9751383662223816,-0.1350192576646805,-9.2545166015625,-49.22940063476562,10.13299560546875,2
1596229993.549914,14,0,102325.724728,-0.9121781883999128,1.001762170143866,1.351794775424048,0.5492761731147766,0.2720870077610016,-0.3725166618824005,-0.1185237467288971,0.1010144948959351,-0.01189672946929932,2,0.657656934356821,0.09464024536109125,-0.03169525026085329,0.7466766448756132,0.1830205172300339,-0.9761148691177368,-0.117061160504818,-8.929275512695312,-49.08436584472656,10.9761962890625,2
1596229993.57101,15,0,102325.754826,-0.9924052887515087,1.087734349806211,1.349167395117267,0.4690317809581757,0.2301936149597168,-0.3143607079982758,0.0411977618932724,0.03590315580368042,-0.03855961561203003,2,0.6623910974254767,0.1009250084677568,-0.03395600111686331,0.7415518542057115,0.1946665644645691,-0.9755406975746155,-0.1021043509244919,-8.681556701660156,-48.84097290039062,11.6368408203125,2
1596229993.606715,16,0,102325.784924,-1.067086430672247,1.168246157498091,1.350899462042752,0.4987991452217102,0.252964973449707,-0.0653558075428009,0.1328845620155334,0.07876825332641602,0.04204052686691284,2,0.6679714070503681,0.1052926766629157,-0.03422416447833271,0.7359050467570377,0.200692355632782,-0.9759199619293213,-0.08545530587434769,-8.203964233398438,-48.73969268798828,12.47674560546875,2
1596229993.630979,17,0,102325.815023,-1.132909446689157,1.24116230504946,1.35509953565541,0.5458301305770874,0.3227720558643341,-0.01127830799669027,0.166479080915451,0.0003271102905273438,0.03446751832962036,2,0.6734717650978882,0.1086084090294745,-0.03254394850202735,0.730466102947275,0.2025043815374374,-0.9768275022506714,-0.0692799910902977,-8.289985656738281,-48.54360961914062,13.01547241210938,2
1596229993.665709,18,0,102325.845121,-1.219661905439397,1.331840940158043,1.362310715564891,0.687014102935791,-0.1200198754668236,0.1117442473769188,0.1231815814971924,-0.027721107006073,-0.0734068751335144,2,0.6807673750497597,0.1098232716617474,-0.03097266336176741,0.7235573831758084,0.20109723508358,-0.9783454537391663,-0.04898925870656967,-8.401268005371094,-48.4722900390625,13.93096923828125,2
1596229993.691302,19,0,102325.875219,-1.304431373014672,1.405970186054231,1.368138880169344,0.4306701123714447,-0.4394697248935699,0.05818147957324982,0.0230155736207962,0.0184369683265686,0.1067187786102295,2,0.6872715280815918,0.1055715356607884,-0.03417171171248551,0.7178751370753407,0.1985448449850082,-0.9795351624488831,-0.03302499651908875,-8.532096862792969,-48.0504150390625,14.50387573242188,2
1596229993.726902,20,0,102325.905318,-1.337642628518213,1.426537914907472,1.371073810337392,0.1751763522624969,-0.01628880202770233,-4.929210990667343e-05,-0.2049556970596313,-0.0597652792930603,0.09731775522232056,2,0.6896650328472347,0.1005061485128229,-0.03798144035126449,0.7161131542877737,0.19633649289608,-0.9801216721534729,-0.02852131240069866,-8.172454833984375,-47.93173980712891,15.16348266601562,2
1596229993.751543,21,0,102325.935416,-1.375699063134714,1.478306066074564,1.36884341090741,0.2509824931621552,0.9734655022621155,-0.1612013429403305,-0.2698988318443298,0.06075543165206909,0.2683095335960388,2,0.6923649582349894,0.1066207570819551,-0.03446788850683236,0.7127936629830386,0.1997259110212326,-0.9796767234802246,-0.01852555759251118,-8.385665893554688,-47.84269714355469,15.47805786132812,2
1596229993.787422,22,0,102325.965514,-1.406129910232817,1.544860133409826,1.364032931347234,0.1792178601026535,1.268176794052124,-0.1866310983896255,-0.1871372610330582,-0.0001094341278076172,0.2103443145751953,2,0.6946963442790527,0.1213879441327786,-0.02389283991998453,0.7085837622574367,0.2052235901355743,-0.9787005186080933,-0.005323912482708693,-8.566749572753906,-47.76373291015625,15.70233154296875,2
1596229993.811676,23,0,102325.995613,-1.419217024463656,1.593528853258092,1.354497067466905,-0.01278252527117729,0.7880086898803711,-0.4186085164546967,0.0995115339756012,-0.04919648170471191,-0.006599068641662598,2,0.6953935746373007,0.1373570459374309,-0.01497517225420081,0.7052209731748493,0.2145614176988602,-0.9766983985900879,0.004878363572061062,-8.705543518066406,-47.80121612548828,15.75143432617188,2
1596229993.847395,24,0,102326.025711,-1.432646081324249,1.619704581671521,1.343358162387798,0.1754462718963623,0.1613361239433289,-0.2218955755233765,0.1736787408590317,0.008179724216461182,-0.1366671323776245,2,0.6958898857993546,0.1457704592373937,-0.01454598160880388,0.7030480030111192,0.2252120673656464,-0.9742472171783447,0.01102351956069469,-8.492294311523438,-47.74734497070312,15.33688354492188,2
1596229993.872183,25,0,102326.0558080417,-1.45581963629186,1.646327919492835,1.340409494460705,0.1976906210184097,0.07379250973463058,0.01751181483268738,0.1102405339479446,0.05303382873535156,0.05302536487579346,2,0.6976333808019113,0.1480657562133508,-0.0144511025614078,0.7008391419103021,0.2277037054300308,-0.973578155040741,0.01723160408437252,-8.397361755371094,-47.97806549072266,15.543701171875,2
1596229993.906653,26,0,102326.0859070417,-1.472363702821821,1.659818408733311,1.341391666321137,0.1700299084186554,-0.1324514001607895,-0.03640017285943031,-6.307661533355713e-05,-0.002265632152557373,-0.1587406396865845,2,0.6989963016150437,0.1466714039555751,-0.01518462824183719,0.699757813958106,0.2264969199895859,-0.9738019704818726,0.02021666057407856,-8.391036987304688,-47.74484252929688,15.99813842773438,2
1596229993.933687,27,0,102326.1160050417,-1.511498593240232,1.69216542440236,1.336002183291368,0.3263697922229767,-0.4384143054485321,-0.1553094983100891,0.09529650211334229,-0.01229560375213623,-0.1920963525772095,2,0.7019464628766063,0.1461312452448407,-0.01943230738716684,0.696806408505514,0.2309312522411346,-0.9725622534751892,0.02816635556519032,-8.289398193359375,-47.48825073242188,16.39373779296875,2
1596229993.968218,28,0,102326.1461030417,-1.538616603075702,1.70139482172634,1.335592269556537,0.1481337249279022,-0.596845269203186,0.1483103632926941,0.002700746059417725,0.02200096845626831,0.07800066471099854,2,0.7039791800478475,0.1399554715774477,-0.02577506767976578,0.6958171200648863,0.2310570478439331,-0.9724668264389038,0.03034844063222408,-7.930412292480469,-47.34114074707031,16.64361572265625,2
1596229993.992237,29,0,102326.1762020417,-1.556731604526532,1.704191791094776,1.336645751613277,0.05271311104297638,-0.344718724489212,-0.120642825961113,-0.1873912513256073,0.02646064758300781,0.1864011287689209,2,0.7052835263363086,0.134180153033737,-0.03071762922926852,0.6954332043961091,0.2299559414386749,-0.9727118015289307,0.03085833229124546,-7.684608459472656,-47.05067443847656,17.13107299804688,2
1596229994.026501,30,0,102326.2063000417,-1.548245797634874,1.68979576528599,1.328300804786503,0.01998525857925415,-0.01723219081759453,-0.3917022943496704,-0.09885415434837341,0.0210767388343811,0.01786983013153076,2,0.7042811219745648,0.1350622010487415,-0.03578900940799384,0.6960354416330607,0.2384272068738937,-0.9707417488098145,0.02850739471614361,-7.525306701660156,-47.20594787597656,17.09942626953125,2
1596229994.05241,31,0,102326.2363980417,-1.557204094097439,1.700139147557293,1.318446105006023,0.1090797260403633,-0.006695784628391266,-0.1898592561483383,0.08396339416503906,-0.02055394649505615,0.005441188812255859,2,0.7048419543642904,0.1389244867010735,-0.03874293580623553,0.6945478848378315,0.2475947141647339,-0.9683282971382141,0.03220438584685326,-6.67645263671875,-47.18773651123047,17.29644775390625,2
1596229994.087351,32,0,102326.2664970417,-1.561964054788172,1.700256797349414,1.315772108688571,-0.006647700443863869,-0.3026077151298523,0.0003778995014727116,0.09937107563018799,-0.01120913028717041,-0.04906511306762695,2,0.7051101811854652,0.1382153797938502,-0.04129881982900283,0.6942698295662217,0.2501579821109772,-0.967657208442688,0.03256771713495255,-6.608863830566406,-47.19693756103516,17.2322998046875,2
1596229994.112733,33,0,102326.2965950417,-1.566493407368738,1.694518756389636,1.314171255356068,0.1110874861478806,-0.3172033131122589,-0.1319229900836945,-0.006863534450531006,0.01209288835525513,-0.04307365417480469,2,0.7052569418519016,0.1351816201485346,-0.04545953995452523,0.6944580277949716,0.2518772482872009,-0.9672520756721497,0.03132284805178642,-6.560569763183594,-47.14068603515625,17.383056640625,2
1596229994.150869,34,0,102326.3266930417,-1.566834109649427,1.683727182354271,1.309929831324876,-0.03045230358839035,-0.3310056626796722,-0.1292721629142761,-0.05752402544021606,0.003470301628112793,-0.1074204444885254,2,0.7049116040268388,0.1327860833695954,-0.05087895761194886,0.6948948532390359,0.2562750577926636,-0.9661668539047241,0.02906502597033978,-6.149078369140625,-47.30561828613281,17.57821655273438,2
1596229994.172988,35,0,102326.3567920417,-1.568525632308312,1.676551729850239,1.307166019636486,0.03593092039227486,-0.2649902999401093,-0.08485843986272812,-0.1247798800468445,0.03484827280044556,0.02237832546234131,2,0.7047570110730823,0.1306565006008857,-0.05496998244062015,0.6951436356267839,0.2591310441493988,-0.9654503464698792,0.02750713191926479,-5.796821594238281,-47.34500122070312,17.64462280273438,2
1596229994.206471,36,0,102326.3868900417,-1.562904516627603,1.667241424889881,1.301060715950862,-0.09761061519384384,-0.009375425986945629,-0.3262673914432526,-0.1826348900794983,0.02310097217559814,0.2002143859863281,2,0.7039406988211181,0.1315208849289137,-0.05844667260002512,0.6955239989837223,0.2652378380298615,-0.9638413786888123,0.02566050179302692,-5.807098388671875,-47.38803863525391,17.55856323242188,2
1596229994.234164,37,0,102326.4169880417,-1.532501108414222,1.639979034353867,1.29068734717551,-0.4157750904560089,0.1043388694524765,-0.402101457118988,-0.2033169865608215,-0.02775716781616211,0.2729530334472656,2,0.700696692056375,0.1363071902253555,-0.06108918329399812,0.6976478670515067,0.2757988274097443,-0.9610252976417542,0.01911100931465626,-4.986770629882812,-47.24629211425781,17.298828125,2
1596229994.270356,38,0,102326.4470870417,-1.472652202333625,1.588783843230322,1.277128187350485,-0.6723480820655823,0.3727080225944519,-0.5432291626930237,-0.155733048915863,0.002320587635040283,0.3713185787200928,2,0.6941737280127578,0.1439655204595137,-0.06277733887553733,0.7024639680995375,0.289417952299118,-0.9571885466575623,0.005206471309065819,-4.642440795898438,-47.54058074951172,17.08877563476562,2
1596229994.293615,39,0,102326.4771850417,-1.388155903546596,1.515469429232837,1.258409688699375,-1.025998592376709,0.1900254786014557,-0.687055766582489,-0.02539962530136108,-0.03626871109008789,0.2146649360656738,2,0.6840271658827697,0.1536533241085456,-0.06478501512585433,0.7101411377051055,0.3068605065345764,-0.9516028165817261,-0.01699498482048512,-3.524147033691406,-48.1884765625,15.6361083984375,2
1596229994.329115,40,0,102326.5072830417,-1.274122273253804,1.41550673821729,1.233609831136649,-1.489232540130615,0.1248103305697441,-0.6984344720840454,0.05587178468704224,-0.1295549869537354,0.2719573974609375,2,0.6687551717349041,0.1648700479924494,-0.06639565581816559,0.7219252658340478,0.3268525898456573,-0.943689227104187,-0.0511687733232975,-2.894500732421875,-48.27427673339844,14.68344116210938,2
1596229994.353705,41,0,102326.5373820417,-1.147068971923091,1.290670972415282,1.19796722190079,-2.079301357269287,-0.3912545442581177,-0.8873676061630249,0.199458122253418,-0.220967173576355,0.3264636993408203,2,0.6478910296298389,0.1728692297969445,-0.07317220420923315,0.7382406680355812,0.3500534296035767,-0.9313005805015564,-0.1007068827748299,-1.810768127441406,-48.89457702636719,11.96304321289062,2
1596229994.38789,42,0,102326.5674800417,-0.9799007638609744,1.131310962776107,1.157066792565833,-2.449835062026978,0.7956727743148804,-0.1827878057956696,-0.2580386996269226,-0.05443167686462402,0.5101196765899658,2,0.6184917384286657,0.178723147509638,-0.0740426572712109,0.7616060456475546,0.3638228178024292,-0.9156278371810913,-0.1710520088672638,-0.8530807495117188,-49.64857482910156,7.549102783203125,2
1596229994.413649,43,0,102326.5975780417,-0.8570311251908918,1.072540312040756,1.121118015795077,-1.545072436332703,1.920219302177429,-0.4994760751724243,-0.1808409690856934,0.5260743498802185,0.4153009653091431,2,0.5955150849436992,0.2037086360467202,-0.05544355160505304,0.775106847230055,0.3818268477916718,-0.9005869626998901,-0.2077291458845139,-0.7176895141601562,-49.97604370117188,5.554443359375,2
1596229994.446924,44,0,102326.6276770417,-0.794955861151152,1.078329468400359,1.082592188508601,-1.779808044433594,2.332771301269531,-0.8101991415023804,0.6952636241912842,0.1596293449401855,-0.5966149568557739,2,0.5780128091746491,0.2345628910704756,-0.04077757602809107,0.7805245941627906,0.4133041203022003,-0.8831766247749329,-0.2217628806829453,-0.056671142578125,-50.23422241210938,2.73681640625,2
1596229994.473959,45,0,102326.6577750417,-0.70033085501655,1.045754791861325,1.050233518090957,-1.440249800682068,1.098395109176636,0.6365713477134705,0.5073094964027405,0.02274942398071289,-0.3933788537979126,2,0.5562049151083966,0.2568722061178444,-0.02201927486675065,0.7900430662650488,0.4303746819496155,-0.8675394058227539,-0.2493055313825607,0.4488754272460938,-50.34893035888672,0.932525634765625,2
1596229994.506937,46,0,102326.6878730417,-0.6324475981459737,1.0074012547311,1.062486247935733,-0.3454523384571075,-0.02498821169137955,0.8573943376541138,0.3248278498649597,0.4512074589729309,-0.4297179579734802,2,0.5511002120146858,0.2575357896873572,-0.002421206408608045,0.7936989658447453,0.4114804267883301,-0.8735682368278503,-0.2599277496337891,-0.8080596923828125,-50.04190826416016,-0.91094970703125,2
1596229994.534282,47,0,102326.7179720417,-0.6088923790378244,0.9565890542835077,1.074819695083895,0.07357414811849594,-1.761652231216431,0.3292855322360992,0.1477020084857941,0.1249634623527527,-0.7487190365791321,2,0.5520896893685305,0.2409698974078536,-0.003831203586114718,0.798195280329027,0.3889124095439911,-0.879504382610321,-0.2742609679698944,-1.538482666015625,-50.28440093994141,-1.1341552734375,2
1596229994.570469,48,0,102326.7480700417,-0.5888786433875318,0.890990352952146,1.082863111738656,-0.2360596656799316,-1.194784164428711,0.5057486295700073,-0.1950745582580566,-0.04309171438217163,-0.2224581241607666,2,0.5522129319844206,0.2184188504938061,-0.01190702991750314,0.804495009120342,0.3645841777324677,-0.8833036422729492,-0.2947081625461578,-2.636825561523438,-50.30503082275391,-1.262939453125,2
1596229994.594154,49,0,102326.7781680417,-0.5628226589520371,0.8520973324496824,1.088211789561392,-0.06232556328177452,0.1229521930217743,0.1476441770792007,-0.6785508394241333,0.02273005247116089,0.3529636859893799,2,0.551033710024224,0.2087788465730543,-0.01084831254324814,0.8078709671581614,0.3492883145809174,-0.885798454284668,-0.3055464923381805,-2.86962890625,-50.27528381347656,-1.535858154296875,2
1596229994.628609,50,0,102326.8082660417,-0.580515823847903,0.8643802850191338,1.084300999658505,0.2962687313556671,-0.2909520864486694,-0.6908928751945496,-0.3685434460639954,0.1484778523445129,-0.1200780272483826,2,0.551623760486186,0.209693495780716,-0.01553354896105053,0.8071546753819845,0.3556475341320038,-0.8839768171310425,-0.3034797310829163,-3.02691650390625,-50.25682830810547,-1.614471435546875,2
1596229994.654414,51,0,102326.8383650417,-0.6159668829376902,0.8902354513298826,1.070190185284375,-0.1971453726291656,-0.2461228668689728,-0.4955956637859344,0.2849043011665344,-0.2733057141304016,-0.1565473079681396,2,0.5508563905953534,0.2134375968211703,-0.02613241334952665,0.8064235027041314,0.3730325996875763,-0.8772917985916138,-0.3020032644271851,-2.351593017578125,-50.23903656005859,-1.396728515625,2
1596229994.687545,52,0,102326.8684630417,-0.6084799936053261,0.8726613133551085,1.064922664987846,-0.05424565449357033,-0.314331591129303,0.2959855496883392,0.3401492536067963,0.05218398571014404,-0.003680586814880371,2,0.5480383137094236,0.2095589575406601,-0.02922386296850066,0.8092497173308402,0.3712026476860046,-0.8747514486312866,-0.3114781081676483,-1.563026428222656,-50.03912353515625,-1.547698974609375,2
1596229994.717645,53,0,102326.8985610417,-0.5900885731096522,0.8508780800483138,1.069862709006153,-0.1819955110549927,0.002774149645119905,0.226367250084877,0.1131370961666107,0.1460910439491272,0.04239457845687866,2,0.5475210369728702,0.2047010319072809,-0.02655487935252804,0.81093340869247,0.3610765337944031,-0.8771345615386963,-0.3166364133358002,-1.822708129882812,-50.35866546630859,-1.642913818359375,2
1596229994.750926,54,0,102326.9286600417,-0.5727268452070001,0.8493309438285996,1.072536111605426,-0.2646893262863159,0.8313256502151489,0.3636616468429565,-0.1060617566108704,-0.1765703558921814,0.4245225787162781,2,0.5466335146270304,0.208253211791855,-0.01930663113006997,0.8108327085214742,0.3588243424892426,-0.8784153461456299,-0.3156448006629944,-2.18499755859375,-50.16262054443359,-1.87744140625,2
1596229994.774843,55,0,102326.9587580417,-0.5357275475869341,0.8475900108007032,1.073935020015205,-0.4158990681171417,1.081758379936218,0.4171837270259857,-0.1905840635299683,-0.002660870552062988,0.2010794878005981,2,0.5431731425686663,0.2173366177183638,-0.004451790043165094,0.8109919391631052,0.3573526740074158,-0.879082977771759,-0.3154554665088654,-2.708564758300781,-50.25460815429688,-2.135406494140625,2
1596229994.806942,56,0,102326.9888560417,-0.5175364794604324,0.8590423240589948,1.072797563918114,-0.07906784862279892,0.7413837313652039,-0.169725626707077,-0.1484644412994385,0.1046686768531799,-0.2878397107124329,2,0.5407497015086081,0.2271390175257139,0.005759066947636116,0.8099163328603477,0.3616987764835358,-0.8785402774810791,-0.311995267868042,-3.092727661132812,-50.20008087158203,-2.838287353515625,2
1596229994.835222,57,0,102327.0189540417,-0.523386551329643,0.8884661856924206,1.0671970816681,-0.09652069956064224,0.833703875541687,-0.0286334715783596,0.04583379626274109,0.02062976360321045,-0.04472088813781738,2,0.5393609197230286,0.2386025595765544,0.01002097718022255,0.8075012647155643,0.3745338916778564,-0.8758513331413269,-0.3043172359466553,-2.690071105957031,-50.26682281494141,-3.132537841796875,2
1596229994.870225,58,0,102327.0490534167,-0.5122794695883388,0.898161687791643,1.068196093708442,-0.08307709544897079,0.324369490146637,0.1871375143527985,0.1390602290630341,0.08753937482833862,-0.1485468745231628,2,0.5382976976942601,0.2453007117564446,0.01735197475552874,0.8060781966830994,0.3767820596694946,-0.8763329982757568,-0.3001262843608856,-2.958473205566406,-50.19742584228516,-3.324432373046875,2
1596229994.895152,59,0,102327.0791514167,-0.5101553084726462,0.8978574766339539,1.06925182513028,0.03223256021738052,-0.1363566219806671,-0.126215398311615,-0.204443633556366,-0.0726972222328186,-0.02436614036560059,2,0.5384061970461153,0.2455335167444749,0.01837812227007418,0.8059121130934549,0.3759670853614807,-0.8768410682678223,-0.2996641099452972,-2.831108093261719,-50.03002166748047,-3.268096923828125,2
1596229994.928313,60,0,102327.1092494167,-0.5182661578195839,0.9100630017361973,1.064152935216339,-0.1322117745876312,0.5378478765487671,-0.1346358209848404,-0.136056512594223,-0.1191990375518799,0.2677892446517944,2,0.5375351523719686,0.2493181142432892,0.01717026147145606,0.8053580213879087,0.3831214606761932,-0.8743782043457031,-0.2977928817272186,-2.663681030273438,-50.460693359375,-3.227813720703125,2
1596229994.955368,61,0,102327.1393484167,-0.5012375559450919,0.9145525845228706,1.059824815976581,-0.2160100638866425,0.5447943210601807,0.1410340368747711,0.06120225787162781,0.09109705686569214,-0.06111782789230347,2,0.5338355277830336,0.256576556993011,0.02418634339212977,0.8053590330756336,0.3874494433403015,-0.8722698092460632,-0.298376202583313,-2.577423095703125,-50.01521301269531,-3.65814208984375,2
1596229994.986128,62,0,102327.1694464167,-0.5056835837564265,0.9238961230126549,1.057787520642885,0.05273354053497314,-0.01515947841107845,-0.4135921895503998,-0.2614015638828278,0.0004402995109558105,-0.08002680540084839,2,0.5335894717794419,0.2595679641244671,0.02439774675974798,0.8045567118724459,0.3916375339031219,-0.8712717294692993,-0.2958135008811951,-2.558837890625,-50.22016906738281,-3.751190185546875,2
1596229995.017375,63,0,102327.1995444167,-0.5193250416974348,0.9411556293677158,1.046600786138533,-0.09599382430315018,0.2939952313899994,-0.2625509202480316,0.1153111755847931,-0.01262503862380981,-0.04251885414123535,2,0.5313246589198576,0.2651950038197344,0.02076638027294847,0.8043223405167139,0.4045371413230896,-0.8657268881797791,-0.2947314381599426,-1.798690795898438,-49.99904632568359,-3.56195068359375,2
1596229995.04731,64,0,102327.2296424167,-0.521050914886658,0.9476838069472581,1.045393076568941,0.05100963264703751,-0.04929027706384659,0.08067994564771652,0.2766788899898529,-0.08625149726867676,-0.1547366380691528,2,0.5310705630620477,0.2676133329926947,0.02150737392669139,0.8036695086740595,0.4073014855384827,-0.8651217818260193,-0.2926943302154541,-1.579093933105469,-49.86822509765625,-3.613983154296875,2
1596229995.075791,65,0,102327.2597414167,-0.5182006441601561,0.9341680540485433,1.046046624782605,-0.02744366228580475,-0.5686107873916626,-0.01836211048066616,0.05569213628768921,0.001681327819824219,-0.1136981248855591,2,0.5310551526931223,0.2627971386949696,0.01922645124819894,0.8053250684359159,0.4028536379337311,-0.8654493689537048,-0.2978361845016479,-1.858932495117188,-49.88955688476562,-3.809326171875,2
1596229995.106312,66,0,102327.2898394167,-0.5290783472286671,0.926863435124225,1.048458800462288,0.4355612397193909,-0.4275266826152802,-0.04265008121728897,-0.05770891904830933,0.08092176914215088,-0.01970970630645752,2,0.5333585117125793,0.2564570997699416,0.01349290500404776,0.8059631729745722,0.3989968299865723,-0.8666553497314453,-0.2995169162750244,-1.698150634765625,-50.05987548828125,-3.774261474609375,2
1596229995.135965,67,0,102327.3199374167,-0.5474114167786081,0.9303099059300878,1.054922692775732,0.2566529214382172,-0.4617915749549866,-0.004182814154773951,-0.07160234451293945,0.07440632581710815,-0.006895780563354492,2,0.5378842777264753,0.2515700785831949,0.008626835619787609,0.8045611513895977,0.3955265581607819,-0.8698620796203613,-0.2947860062122345,-1.72650146484375,-50.04544067382812,-3.12164306640625,2
1596229995.167658,68,0,102327.3500364167,-0.5651075242010228,0.9313694107450062,1.060520313187632,0.387900322675705,-0.5812186002731323,-0.009449949488043785,0.0478614866733551,-0.04860252141952515,-0.08995139598846436,2,0.5419849356578711,0.2460163347542206,0.003187731023125417,0.8035659348888784,0.3919252753257751,-0.8726097345352173,-0.2914565801620483,-1.682342529296875,-50.13978576660156,-2.99151611328125,2
1596229995.196389,69,0,102327.3801344167,-0.5836831141101695,0.9302655552842488,1.067952506642921,0.4093257486820221,-0.5658982992172241,0.05759416520595551,0.06724697351455688,-0.06139677762985229,-0.04692548513412476,2,0.5467417969013012,0.2388950134825271,-0.002715566942963488,0.8024931428841127,0.3863926529884338,-0.8762156367301941,-0.2880051732063293,-1.808120727539062,-50.34336090087891,-2.08807373046875,2
1596229995.227926,70,0,102327.4102324167,-0.5988629019528706,0.9251282928725605,1.076689622159744,0.3409115970134735,-0.5856212377548218,0.0859079584479332,0.01717817783355713,-0.005558609962463379,0.006555140018463135,2,0.5514324006174536,0.2307335585516498,-0.008024781939865222,0.8016357709957109,0.3787787854671478,-0.8803927302360535,-0.2853686511516571,-1.800155639648438,-50.075439453125,-1.55303955078125,2
1596229995.256409,71,0,102327.4403304167,-0.6156464712085477,0.922944907915102,1.085704325835151,0.407561868429184,-0.5021244287490845,0.1023647859692574,0.03659909963607788,-0.01252299547195435,0.02431631088256836,2,0.5563175954021232,0.2231900249426673,-0.01308639819905932,0.8003284168868592,0.3718110322952271,-0.8846320509910583,-0.2813938856124878,-1.952171325683594,-50.44813537597656,-1.072052001953125,2
1596229995.287448,72,0,102327.4704294167,-0.6273319099768445,0.9199006378533805,1.095450875519572,0.2547028958797455,-0.4635118544101715,0.216397687792778,0.1026045978069305,-0.03461718559265137,0.08941417932510376,2,0.5607895540081805,0.2164982911788977,-0.01615290911854933,0.7989885229248546,0.3640760779380798,-0.8891347050666809,-0.2772871255874634,-1.870719909667969,-50.427490234375,-0.79937744140625,2
1596229995.317354,73,0,102327.5005274167,-0.6271127516472436,0.8975903453034476,1.106126293889561,0.2344180345535278,-0.88457852602005,0.2986630201339722,0.07390403747558594,-0.01824289560317993,-0.04061019420623779,2,0.5640771228743832,0.205217113428418,-0.01966620271268471,0.7995725476537376,0.3503584563732147,-0.8939694762229919,-0.2794058620929718,-2.676666259765625,-50.26364135742188,-0.20281982421875,2
1596229995.347606,74,0,102327.5306254167,-0.6278275535207037,0.874070795308971,1.1156581502473,0.1551456153392792,-0.6588336229324341,0.1485900431871414,-0.1018477082252502,0.05165785551071167,0.06229597330093384,2,0.5670379076653785,0.1934542114461517,-0.02425142089542481,0.800284569127453,0.3371397852897644,-0.8982002735137939,-0.282086968421936,-2.984207153320312,-50.19375610351562,0.117706298828125,2
1596229995.376739,75,0,102327.5607244167,-0.6337624543844963,0.8605394530805914,1.120776935100168,0.2166564464569092,-0.6587902307510376,0.07034561783075333,-0.04047119617462158,0.08912861347198486,0.01056694984436035,2,0.5691136827717266,0.185199848691116,-0.0292212696657892,0.8005977052491327,0.3298015892505646,-0.900438666343689,-0.2836212515830994,-3.050796508789062,-50.22721099853516,0.289886474609375,2
1596229995.406826,76,0,102327.5908224167,-0.6377822677050364,0.8418753077576857,1.127464112896008,0.1229048296809196,-0.7814740538597107,0.1531832814216614,-0.04288002848625183,-0.0117342472076416,-0.0154990553855896,2,0.5713959146737076,0.1750761157514222,-0.03453583142668509,0.8010383836805892,0.3199526369571686,-0.9033273458480835,-0.2857101261615753,-3.280723571777344,-50.21070861816406,0.747894287109375,2
1596229995.437036,77,0,102327.6209204167,-0.6415930898849133,0.8246908510378034,1.131785156208774,0.2132984697818756,-0.6216738224029541,-0.02356723882257938,-0.1061155498027802,0.0708242654800415,-0.02842068672180176,2,0.5728382304052635,0.1661314942821362,-0.03994484104806273,0.8016613991631312,0.3121262788772583,-0.9051724076271057,-0.2885133624076843,-3.372314453125,-50.04791259765625,0.68341064453125,2
1596229995.470119,78,0,102327.6510184167,-0.6567637513699299,0.8172351887859622,1.135987913237431,0.2981983125209808,-0.7314381003379822,-0.02150849625468254,0.05763965845108032,0.1721138954162598,-0.01123940944671631,2,0.5753013447684371,0.1578442084343057,-0.04716365361015484,0.8011799291795209,0.3071898519992828,-0.9069507718086243,-0.2882271409034729,-3.371238708496094,-50.04416656494141,1.2021484375,2
1596229995.497277,79,0,102327.6811174167,-0.6698240946725456,0.8046950605350262,1.144881844533286,0.3620689511299133,-0.7884382009506226,0.1855805814266205,0.1001584529876709,-0.06162881851196289,-0.07427150011062622,2,0.578924092205316,0.1470397280781733,-0.05389655226382661,0.8002009013599147,0.2977266609668732,-0.9106612801551819,-0.286452442407608,-3.209609985351562,-50.39003753662109,1.63726806640625,2
1596229995.527453,80,0,102327.7112154167,-0.6791713302265167,0.7924560543182154,1.156911208083272,0.3838832378387451,-0.752091646194458,0.1986096054315567,0.05866700410842896,0.02860754728317261,-0.02958846092224121,2,0.5832099173417901,0.1366927924912603,-0.05833943871383079,0.7986098953958761,0.2863767147064209,-0.9155652523040771,-0.2823625504970551,-3.578178405761719,-50.30293273925781,2.3609619140625,2
1596229995.557398,81,0,102327.7413134167,-0.6934009136920211,0.7829994850052063,1.171865133330513,0.5998972058296204,-0.6611553430557251,0.2523346841335297,-0.05879944562911987,0.1786564588546753,-0.1611129641532898,2,0.588754511505554,0.1253275844246432,-0.06324878510566229,0.7960281384684976,0.2740045785903931,-0.9214766621589661,-0.2753222286701202,-3.786903381347656,-50.13423919677734,2.82171630859375,2
1596229995.58738,82,0,102327.7714114167,-0.7208777285515893,0.7973802992444839,1.190025756037276,0.6963061094284058,0.03682877495884895,0.08291813731193542,-0.08606356382369995,0.05549335479736328,0.00760418176651001,2,0.596751215244446,0.1186532601636214,-0.06554815615247439,0.7908936925168312,0.265916109085083,-0.9283785223960876,-0.2596187889575958,-4.102699279785156,-50.34481811523438,3.959381103515625,2
1596229995.617663,83,0,102327.8015104167,-0.7565873528314782,0.8308515997606083,1.209152748434514,0.8105266690254211,-0.09330901503562927,0.3544679582118988,0.2325416207313538,0.01702296733856201,-0.2152335643768311,2,0.6059312036010057,0.1164864551193391,-0.0648417197592116,0.784266372195962,0.2612920701503754,-0.9353165626525879,-0.2385565638542175,-4.051712036132812,-49.96127319335938,4.876922607421875,2
1596229995.647585,84,0,102327.8316084167,-0.7869565602870152,0.8497692683774456,1.238083723094656,0.9461566805839539,-0.7899905443191528,0.5437884926795959,0.2521876692771912,0.07018089294433594,-0.121740996837616,2,0.6169798670659696,0.1073763035015371,-0.06358137538450465,0.777022218227007,0.2453244030475616,-0.9451598525047302,-0.2156123518943787,-4.705177307128906,-49.87480163574219,6.474853515625,2
1596229995.677744,85,0,102327.8617064167,-0.8198565187217802,0.8543837955943556,1.268709572422739,0.8170326352119446,-0.6789098381996155,0.5910041332244873,0.0804411917924881,0.2904689311981201,0.0374341607093811,2,0.6277072273466702,0.09109147834205103,-0.06695617499045015,0.7701966484267676,0.224374458193779,-0.954717755317688,-0.1953719556331635,-5.071685791015625,-49.85098266601562,7.32861328125,2
1596229995.70787,86,0,102327.8918044167,-0.8253382198468461,0.8499731636526239,1.29905616995619,0.7347432971000671,0.1055540964007378,0.7888136506080627,-0.2280669808387756,-0.02268171310424805,0.1253214478492737,2,0.6364406363710566,0.07980066005042585,-0.06254210317864223,0.7646330462384278,0.2016451209783554,-0.9633052945137024,-0.1771503388881683,-6.428321838378906,-49.37715148925781,8.910400390625,2
1596229995.737915,87,0,102327.9219034167,-0.8695277564014054,0.9085981918395696,1.329013308400319,1.097784757614136,0.8888087868690491,0.1955200731754303,-0.2530724108219147,-0.04194945096969604,-0.04769951105117798,2,0.6480766514607916,0.07992649132247726,-0.05250290899791721,0.7555474705795329,0.1888283342123032,-0.9709125757217407,-0.1472168266773224,-7.116950988769531,-49.26751708984375,9.435394287109375,2
1596229995.769676,88,0,102327.9520014167,-0.9729615186182989,1.035425042968501,1.350416174436278,0.921883225440979,0.6006771326065063,0.2702816724777222,0.09597405791282654,0.05055838823318481,0.0008566975593566895,2,0.660737266782345,0.08755377273249546,-0.04366039165728242,0.744213874235334,0.1880135536193848,-0.9758144021034241,-0.1115211993455887,-7.674369812011719,-48.7626953125,11.23263549804688,2
1596229995.800791,89,0,102327.9820994167,-1.044819366538896,1.101989201546626,1.375956003205848,0.9093607664108276,-0.7154102325439453,0.6186668276786804,0.031119704246521,-0.2054896950721741,-0.3068050146102905,2,0.6706503389298342,0.08055769020715267,-0.04032966555168704,0.7362825820463114,0.172720655798912,-0.9810786247253418,-0.08747716248035431,-8.677864074707031,-48.30635833740234,12.8267822265625,2
1596229995.828233,90,0,102328.0121974167,-1.127689061951757,1.163480237311009,1.397844227795985,0.3889313042163849,-0.6259022951126099,0.2422777116298676,-0.3212985098361969,-0.002901434898376465,0.2988452911376953,2,0.6791588856350138,0.06823933783202771,-0.04302706814985152,0.7295445353088319,0.1580117046833038,-0.9850810170173645,-0.06817319989204407,-9.011611938476562,-48.22615814208984,13.91744995117188,2
1596229995.858329,91,0,102328.0422964167,-1.206505979225775,1.230626008346686,1.40118175669717,0.7418708801269531,0.1351471543312073,-0.3307128548622131,-0.3753030002117157,0.1460363268852234,0.2769911885261536,2,0.6838506401625389,0.06471542390623064,-0.04772169478014987,0.7251777674841021,0.1591293960809708,-0.9856498837471008,-0.0563204325735569,-8.89495849609375,-47.89644622802734,14.773193359375,2
1596229995.890558,92,0,102328.072394625,-1.343114009451637,1.382344497290871,1.392845623388345,0.3856985569000244,0.8080154061317444,-0.5721095204353333,-0.06098204851150513,-0.03317391872406006,0.4629477858543396,2,0.6911949601090362,0.07529146725709102,-0.04766282954403744,0.7171534641452529,0.1738796830177307,-0.9842085242271423,-0.03316144272685051,-8.66619873046875,-47.50762176513672,15.542724609375,2
1596229995.918509,93,0,102328.102492625,-1.363661574015457,1.422443643919539,1.382985764125853,-0.04454641044139862,0.4850611388683319,0.06103555858135223,0.3272952139377594,-0.1365991234779358,0.1117273569107056,2,0.6919642105805452,0.08594709160032671,-0.04457098150393018,0.7154104599187796,0.184657946228981,-0.9824153780937195,-0.02759725786745548,-8.431037902832031,-47.63739776611328,15.77362060546875,2
1596229995.950296,94,0,102328.132590625,-1.368456321432421,1.431029167139906,1.396116412640924,0.1836092621088028,-0.1718280613422394,0.5658143162727356,0.3647576570510864,0.02494895458221436,-0.1474564671516418,2,0.6935674780277941,0.08281513544448799,-0.03874529718647918,0.7145660973728643,0.1720987260341644,-0.9847822189331055,-0.02421161346137524,-8.642410278320312,-47.61341857910156,15.61471557617188,2
1596229995.978791,95,0,102328.162689625,-1.379033849198218,1.429680951965923,1.409081280808102,-0.0002730311825871468,-0.6120622754096985,0.264577716588974,0.06449031829833984,-0.01603376865386963,0.04980897903442383,2,0.6951085883915017,0.07416954559546651,-0.0384774599836793,0.7140325422354267,0.1594109684228897,-0.9869526028633118,-0.02264585718512535,-9.373931884765625,-47.2197265625,16.16302490234375,2
1596229996.010624,96,0,102328.192787625,-1.367034820796951,1.401316818624084,1.415198609572097,0.01698895543813705,-0.4425057768821716,0.2452863156795502,-0.05556055903434753,0.03923654556274414,0.09209108352661133,2,0.6946677091085233,0.06608583165195572,-0.04191930811723255,0.7150610358709896,0.1527507901191711,-0.9879190921783447,-0.02613887377083302,-9.419105529785156,-47.33692932128906,16.236083984375,2
1596229996.039051,97,0,102328.222885625,-1.371836558896154,1.397302917426524,1.423619718600034,0.05802842229604721,-0.1443609744310379,0.2455095499753952,-0.05277258157730103,0.02749264240264893,0.06426280736923218,2,0.6955102842315699,0.06006793001161639,-0.04210971465632968,0.7147614982041741,0.1444439738988876,-0.989189088344574,-0.0253145769238472,-9.685493469238281,-47.30059051513672,16.5006103515625,2
1596229996.069105,98,0,102328.252983625,-1.353049300766883,1.381021528292555,1.429452863959344,-0.1569769680500031,0.2005268186330795,0.2030059397220612,-0.1680970191955566,-0.007500171661376953,0.2299525141716003,2,0.6951689651930189,0.05876273727843412,-0.03903340351829954,0.715376477328732,0.1383445858955383,-0.9900276064872742,-0.02657410129904747,-9.672492980957031,-47.20874786376953,16.3603515625,2
1596229996.099484,99,0,102328.283082625,-1.297626329814784,1.325233047508909,1.431471206782123,-0.3184674978256226,-0.2441981732845306,-0.02603925950825214,-0.2260569930076599,0.006473064422607422,-0.05701488256454468,2,0.6927014834507693,0.05730900356510721,-0.03783606840404924,0.7179475315692445,0.1347079128026962,-0.9903099536895752,-0.033760666847229,-10.26694488525391,-47.34412384033203,16.03900146484375,2
1596229996.129133,100,0,102328.313180625,-1.246831232126655,1.268633548421738,1.423342932423449,-0.2653589248657227,-0.08254369348287582,-0.345925360918045,-0.3023046255111694,0.05053794384002686,-0.0521235466003418,2,0.6891029751960711,0.05724092265919367,-0.04186654109283156,0.7211849505693302,0.1402633041143417,-0.9891484379768372,-0.04372113198041916,-10.07398986816406,-47.51691436767578,15.67416381835938,2
1596229996.159268,101,0,102328.343278625,-1.219979069124239,1.246414610885455,1.407022962739671,-0.316630631685257,0.4849464297294617,-0.5749248266220093,-0.2587278485298157,0.04931718111038208,0.02543014287948608,2,0.6855185828854196,0.06388786483868925,-0.0452582919909868,0.7238330419249477,0.154539093375206,-0.9866191148757935,-0.05196522548794746,-9.326652526855469,-47.65012359619141,15.25570678710938,2
1596229996.190808,102,0,102328.373376625,-1.212745563705044,1.261881462500115,1.389859525491539,-0.1990960091352463,0.8275642395019531,-0.3951739072799683,0.06980812549591064,0.04145151376724243,0.06089574098587036,2,0.6830911137434178,0.07766363077928778,-0.04306487453048974,0.7249140525111293,0.1714333742856979,-0.9836755394935608,-0.0547097809612751,-9.200286865234375,-47.89671325683594,15.09619140625,2
1596229996.219526,103,0,102328.403475625,-1.176271035848594,1.24591854591814,1.382221278132447,-0.3585213422775269,0.4175844788551331,0.01041834242641926,0.2057470381259918,-0.1080878376960754,-0.03650933504104614,2,0.6801059467776084,0.08682187676314423,-0.03780230903662984,0.7269723873953408,0.1776533573865891,-0.9822723269462585,-0.05983572453260422,-8.782081604003906,-48.28124237060547,14.26589965820312,2
1596229996.249587,104,0,102328.433573625,-1.116610078803967,1.191315837281909,1.378924854350542,-0.3540430963039398,-0.1631992757320404,-0.02548065595328808,0.2657562494277954,0.005019485950469971,-0.0471649169921875,2,0.6759414970200446,0.08821821597711102,-0.03564840512537265,0.7307871710618348,0.1771299540996552,-0.9816491007804871,-0.07064127922058105,-9.014564514160156,-48.32577514648438,13.50946044921875,2
1596229996.279755,105,0,102328.463671625,-1.080046838834158,1.145837388729017,1.37715272396062,-0.2428414225578308,-0.5256239175796509,0.2381550520658493,0.2718791365623474,-0.001916110515594482,-0.01613503694534302,2,0.6731991488396758,0.08446310438154561,-0.0381683830285548,0.7336292932914615,0.1753190606832504,-0.9813095927238464,-0.07933778315782547,-8.938957214355469,-48.51470184326172,13.37152099609375,2
1596229996.309807,106,0,102328.493769625,-1.020017490274762,1.070807045978367,1.384905772489488,-0.07962857186794281,-0.4983359575271606,0.4332855045795441,0.09634971618652344,0.03374564647674561,-0.1075412034988403,2,0.6709124558342847,0.07465391621880935,-0.03889913360182384,0.7367429112566022,0.1621973067522049,-0.9827720522880554,-0.08860653638839722,-9.153297424316406,-48.17793273925781,13.02398681640625,2
1596229996.33993,107,0,102328.523867625,-0.9907302780590369,1.027283451888026,1.393783417764963,-0.09324948489665985,-0.4644209742546082,0.2645106017589569,-0.1326292455196381,0.006911516189575195,-0.02826827764511108,2,0.6709266412574427,0.06576766528391595,-0.04002326836608916,0.7375162151269196,0.1507147997617722,-0.9843741059303284,-0.09106411039829254,-9.700469970703125,-48.36692047119141,13.09793090820312,2
1596229996.369994,108,0,102328.553966625,-0.9569187247435508,0.9827783639173757,1.395779742502926,-0.03960740566253662,-0.292586088180542,0.03833691403269768,-0.1816614270210266,0.07622039318084717,-0.002634644508361816,2,0.6693997849658595,0.06007903442866996,-0.0418639793288299,0.7392846311346225,0.1448784917593002,-0.9847236275672913,-0.0965888723731041,-9.8272705078125,-48.15459442138672,13.0185546875,2
1596229996.400041,109,0,102328.584064625,-0.9559053504388628,0.9757778152112816,1.395371076464144,-0.1083120629191399,-0.1310930848121643,-0.008514015004038811,-0.1552640795707703,-0.0004204511642456055,0.08847880363464355,2,0.6691252921709012,0.05794849955009326,-0.04395079664388807,0.7395820987083941,0.1445325314998627,-0.9846524000167847,-0.09782662987709045,-9.796501159667969,-48.23874664306641,13.23956298828125,2
1596229996.431522,110,0,102328.614162625,-0.9361358709256118,0.9564320734373321,1.391847121969653,-0.1045956537127495,0.1496159583330154,-0.09051743149757385,-0.1159688234329224,0.04423856735229492,0.08430153131484985,2,0.6672984070460005,0.05840456109613468,-0.04411063031033513,0.7411854925479863,0.1454471349716187,-0.9840312600135803,-0.1026034876704216,-9.604438781738281,-48.47282409667969,13.05059814453125,2
1596229996.46026,111,0,102328.644260625,-0.9483490781151994,0.9752249139740781,1.389307903464803,0.03385615721344948,0.2361329048871994,-0.06507736444473267,0.04847890138626099,0.02491742372512817,-0.01830810308456421,2,0.667477677505259,0.06202041877925901,-0.04309509976804432,0.7407900794924509,0.1494182497262955,-0.9835761189460754,-0.1012540385127068,-9.577102661132812,-48.41234588623047,12.86178588867188,2
1596229996.490896,112,0,102328.674359625,-0.940587921603377,0.9692830658572102,1.389036434453804,-0.07895053923130035,-0.128191202878952,0.06059156358242035,0.113596111536026,-0.04245412349700928,-0.1108849048614502,2,0.6670456408969097,0.06248642909184582,-0.04228033085058092,0.7411869066763933,0.1490340679883957,-0.9835271239280701,-0.102291114628315,-9.722816467285156,-48.40180969238281,12.6943359375,2
1596229996.520511,113,0,102328.704457625,-0.9270957129256051,0.9481918902262743,1.389104295550925,-0.06843818724155426,-0.3691003024578094,0.04787266999483109,0.008967697620391846,0.01848679780960083,-0.03021699190139771,2,0.6661950187360814,0.05914306810553471,-0.04428761279007498,0.7421084995642063,0.1467895209789276,-0.983539342880249,-0.1053725853562355,-9.672119140625,-48.38668823242188,12.55276489257812,2
1596229996.551111,114,0,102328.734555625,-0.919637991327993,0.9342717482767863,1.388369151162468,-0.008629057556390762,-0.02469347417354584,-0.02970503643155098,-0.02895358204841614,0.0314440131187439,0.0852392315864563,2,0.6654859389991508,0.05666572993916524,-0.04636120776957003,0.7428109178702722,0.1458893120288849,-0.9834062457084656,-0.1078349202871323,-9.373435974121094,-48.60805511474609,12.577392578125,2
1596229996.580691,115,0,102328.764653625,-0.9058942717246294,0.921608275613765,1.387439945397795,-0.1984195709228516,0.06570897996425629,0.1279095560312271,-0.01454707980155945,-0.0282515287399292,0.0207369327545166,2,0.6645765480445163,0.05678980713973009,-0.04572510125420193,0.7436545143055755,0.1452396512031555,-0.9832372665405273,-0.1102258563041687,-9.496231079101562,-48.60260772705078,12.73565673828125,2
1596229996.610771,116,0,102328.794752625,-0.8751756097688944,0.8926631339958003,1.387674524036215,-0.01558103784918785,0.01139248255640268,0.001802216982468963,-0.02063816785812378,0.03125524520874023,-0.02237635850906372,2,0.6631198936612798,0.05614838491383484,-0.04383479149001457,0.7451160186271103,0.1418095678091049,-0.9832800030708313,-0.1142387315630913,-9.876609802246094,-48.56842803955078,12.28668212890625,2
1596229996.641198,117,0,102328.824850625,-0.8601248172313991,0.883114158634038,1.385000863086741,-0.3228457570075989,0.2983287572860718,0.07130035012960434,-0.06437030434608459,-0.03993594646453857,0.1850429773330688,2,0.6617955559270371,0.05829682307200479,-0.04211135943838717,0.7462270824929109,0.1427435576915741,-0.9827896356582642,-0.1172562465071678,-9.641983032226562,-48.56887054443359,12.31375122070312,2
1596229996.670954,118,0,102328.854948625,-0.8273050002674349,0.8587398437682452,1.381601636410547,-0.1356973946094513,0.221768781542778,-0.01345641072839499,-0.05186176300048828,0.01490288972854614,-0.1263946890830994,2,0.6594287303611202,0.06093335601418451,-0.03880584741227178,0.7482879514892299,0.1423707753419876,-0.982155978679657,-0.1228817477822304,-9.88677978515625,-48.77566528320312,11.7276611328125,2
1596229996.70112,119,0,102328.885046625,-0.8047273351036014,0.8391906906642843,1.383125878733566,0.03601711988449097,0.02032761089503765,0.1110460534691811,-0.01847118139266968,-0.06760174036026001,-0.04668450355529785,2,0.6587863093038256,0.06066050052358871,-0.03639964602520407,0.7489967188947675,0.1388282030820847,-0.9824415445327759,-0.1246418058872223,-9.969314575195312,-48.72023010253906,11.50567626953125,2
1596229996.731104,120,0,102328.915144625,-0.8114335088706479,0.842889517030219,1.381079788433683,-0.142635777592659,-0.1775102466344833,-0.1396048814058304,0.05302858352661133,0.08648931980133057,0.006166219711303711,2,0.6585012731499507,0.06036495490447316,-0.03822310933319734,0.7491803301600386,0.1407884061336517,-0.9820577502250671,-0.1254642903804779,-10.16639709472656,-48.48191833496094,11.52203369140625,2
1596229996.761279,121,0,102328.945243625,-0.8233210489556132,0.8494388809237607,1.379949271787743,0.2095180004835129,-0.1595190912485123,-0.05459089577198029,0.06964892148971558,-0.02430784702301025,-0.09060055017471313,2,0.658679879475463,0.05919713610009905,-0.04081358986684136,0.7489799180009806,0.1424411088228226,-0.981843888759613,-0.1252730339765549,-9.81280517578125,-48.65280151367188,11.84011840820312,2
1596229996.791389,122,0,102328.975341625,-0.818983844093919,0.8394428265340356,1.381573838218942,-0.1344752013683319,-0.2247417569160461,0.1195749193429947,0.006348699331283569,0.01572221517562866,0.0313372015953064,2,0.6587868865005134,0.05645944515915391,-0.04205770568693651,0.7490281818800517,0.1399935632944107,-0.9821507930755615,-0.125624343752861,-9.645233154296875,-48.62314605712891,11.75985717773438,2
1596229996.821487,123,0,102329.005439625,-0.8060865190576084,0.8203763584894757,1.382218876533659,0.00945676676928997,-0.1736444532871246,0.05964340269565582,-0.01421254873275757,-0.006799280643463135,0.008282721042633057,2,0.6582015798646856,0.05339620767047829,-0.04333673652135628,0.749694293921477,0.1371102780103683,-0.9822719097137451,-0.1278390437364578,-9.964996337890625,-48.74192047119141,11.64028930664062,2
1596229996.85157,124,0,102329.035537625,-0.7949197244054537,0.8051443409586725,1.383259499408802,-0.03239981830120087,-0.1169249266386032,0.07836365699768066,0.03805384039878845,0.01819342374801636,0.02519965171813965,2,0.6578656907957863,0.05109472052726147,-0.04389661914450893,0.7501168038338722,0.134410172700882,-0.982466459274292,-0.129204124212265,-10.03527069091797,-48.61812591552734,11.79974365234375,2
1596229996.881577,125,0,102329.0656359167,-0.7871551699363477,0.7956995060392907,1.384553741093956,-0.04965091124176979,-0.0501076728105545,0.02009670063853264,0.02701863646507263,0.008366107940673828,-0.008295953273773193,2,0.6578244350062254,0.04978067654960205,-0.04376511447137793,0.7502489904670278,0.132275328040123,-0.9827069044113159,-0.1295778006315231,-10.06573486328125,-48.42640686035156,11.64413452148438,2
1596229996.911711,126,0,102329.0957339167,-0.7828748503212097,0.7866350156241365,1.382607164344131,-0.05016210302710533,-0.3710902333259583,-0.06965357065200806,-0.0417000949382782,-0.002575218677520752,-0.02427250146865845,2,0.6569694983333512,0.04827116852478039,-0.04562409310286358,0.7509856064287953,0.1324491798877716,-0.9823446273803711,-0.1321219503879547,-10.18887329101562,-48.52989196777344,11.63131713867188,2
1596229996.941867,127,0,102329.1258319167,-0.7953471066662766,0.7873151608443243,1.379229496042352,-0.03441447019577026,-0.3360138237476349,-0.1609408855438232,-0.071806401014328,0.03227037191390991,0.003338515758514404,2,0.6563259450458989,0.04527468627505324,-0.05092808125520737,0.7513939020481961,0.134889081120491,-0.9817070960998535,-0.1343729197978973,-9.7764892578125,-48.587646484375,11.7034912109375,2
1596229996.971833,128,0,102329.1559299167,-0.8037122451483271,0.7898535740866727,1.37535158269025,-0.08260264992713928,-0.02715089172124863,-0.1036015227437019,-0.1140451431274414,-0.0009102821350097656,0.06140077114105225,2,0.6554912423590218,0.04445939057150353,-0.05421211632506812,0.7519412980737425,0.1379328370094299,-0.9809613823890686,-0.1367091834545135,-9.588081359863281,-48.71143341064453,11.68661499023438,2
1596229997.001987,129,0,102329.1860279167,-0.8037117705253656,0.7905842799919852,1.368419760254545,-0.2270532846450806,0.1032906323671341,-0.2585629522800446,-0.1342232525348663,-0.006830275058746338,0.02636289596557617,2,0.6535637326245853,0.04648032187859741,-0.05571531112813238,0.7533855855925483,0.1428622156381607,-0.9795916676521301,-0.1413880586624146,-9.3292236328125,-48.81346893310547,11.62173461914062,2
1596229997.032052,130,0,102329.2161269167,-0.8199533740637659,0.8095677683641966,1.357341009445599,-0.06710356473922729,0.08872047066688538,-0.3565076291561127,-0.05726981163024902,0.00653839111328125,0.0309680700302124,2,0.6513980256333505,0.05115228055546189,-0.05845419573704741,0.7547496881622138,0.1533682346343994,-0.9773047566413879,-0.1461281180381775,-8.886993408203125,-48.92207336425781,11.36224365234375,2
1596229997.062328,131,0,102329.2462249167,-0.8496907123006745,0.8372552677904048,1.352039517582916,0.1013893261551857,-0.2164157629013062,-0.1483653634786606,0.07361626625061035,0.0462954044342041,-0.09554970264434814,2,0.6515474302272521,0.05328581707538796,-0.06202640229060369,0.754187804018801,0.1612013131380081,-0.9761679768562317,-0.1452931314706802,-8.424972534179688,-48.89212036132812,11.3743896484375,2
1596229997.092277,132,0,102329.2763229167,-0.8506728076267628,0.8361523891874395,1.351471521986244,-0.1634227335453033,0.1373440474271774,0.0504649393260479,0.05990344285964966,0.003674864768981934,0.03231096267700195,2,0.6513842941785213,0.05269928258961065,-0.06290500389247566,0.7542971794042376,0.1614525020122528,-0.9760445952415466,-0.1458425670862198,-8.362022399902344,-48.79645538330078,11.46774291992188,2
1596229997.122485,133,0,102329.3064209167,-0.8273899860551659,0.8206725771040585,1.349620621857462,-0.1033679842948914,0.2793275713920593,0.04145275428891182,-0.05709362030029297,0.009307801723480225,0.04445028305053711,2,0.6497747330022317,0.05491080148476324,-0.05963170472920243,0.7557919697221033,0.1604966372251511,-0.9756401777267456,-0.1495552062988281,-8.295867919921875,-49.10765075683594,10.94406127929688,2
1596229997.152553,134,0,102329.3365199167,-0.8309518513180734,0.8283144041630068,1.349827928942274,0.04753083735704422,0.03150101006031036,-0.06808344274759293,0.05164468288421631,0.02349817752838135,-0.1039836406707764,2,0.6501567969592698,0.05658696227054796,-0.05844054735881882,0.7554328504760565,0.161486342549324,-0.9756856560707092,-0.1481881141662598,-8.421516418457031,-49.25165557861328,11.0870361328125,2
