loggingTime,loggingSample,identifierForVendor,motionTimestamp_sinceReboot,motionYaw,motionRoll,motionPitch,motionRotationRateX,motionRotationRateY,motionRotationRateZ,motionUserAccelerationX,motionUserAccelerationY,motionUserAccelerationZ,motionAttitudeReferenceFrame,motionQuaternionX,motionQuaternionY,motionQuaternionZ,motionQuaternionW,motionGravityX,motionGravityY,motionGravityZ,motionMagneticFieldX,motionMagneticFieldY,motionMagneticFieldZ,motionMagneticFieldCalibrationAccuracy
1596230235.412771,1,0,102567.597734625,2.017644267745181,-1.018358286358638,1.135357479648832,0.005647923797369003,0.1297948509454727,-0.05904071778059006,-0.02146828174591064,0.01248538494110107,-0.005301296710968018,2,0.5979532353437258,0.1782610223826429,0.4833103557401202,0.6140732924714869,-0.3590633273124695,-0.9066849946975708,-0.2213498651981354,-26.28441619873047,-42.68936157226562,11.19033813476562,2
1596230235.442831,2,0,102567.627832625,2.016119777812909,-1.014994677318327,1.137607081150049,0.01676585339009762,0.08078237622976303,-0.06341063231229782,-0.04502373933792114,0.05591005086898804,0.00436711311340332,2,0.5974692393470804,0.1796959135036778,0.4831542110197541,0.6142491553563456,-0.356583446264267,-0.9076316356658936,-0.2214797735214233,-26.25662994384766,-42.73168182373047,11.0888671875,2
1596230235.472898,3,0,102567.657930625,2.016007369647719,-1.013421959193938,1.138720806711347,0.025385906919837,0.009235202334821224,-0.01509490422904491,-0.02699029445648193,-0.008328795433044434,-0.02437007427215576,2,0.5971949311640699,0.1805699572189107,0.4832459552278578,0.6141873679393859,-0.3553764820098877,-0.908098578453064,-0.2215054035186768,-26.22702789306641,-42.95128631591797,10.86883544921875,2
1596230235.503129,4,0,102567.688027625,2.016041445343412,-1.014455645021746,1.141263050144989,0.06771737337112427,-0.1886721402406693,-0.09672824293375015,-0.01559346914291382,0.01858043670654297,-0.05335319042205811,2,0.5976588019661734,0.1812315561478757,0.4821633003953623,0.6143921925795079,-0.3536437749862671,-0.9091601967811584,-0.2199181616306305,-26.13651275634766,-43.04132080078125,11.07046508789062,2
1596230235.533154,5,0,102567.718125625,2.01679160100713,-1.027572054549714,1.144044028880083,0.05385782197117805,-0.5398081541061401,-0.09379173070192337,-0.03604471683502197,0.03053897619247437,-0.02593708038330078,2,0.6009721087232198,0.1784826379048108,0.4776036067238979,0.6155251731681031,-0.3543317914009094,-0.9103147983551025,-0.2139529436826706,-25.87772369384766,-42.97071838378906,11.13409423828125,2
1596230235.566308,6,0,102567.748223625,2.013853727411735,-1.034858850690481,1.147269093065341,-0.063960961997509,0.3186916708946228,-0.1547632068395615,0.02726644277572632,-0.01124954223632812,0.06368505954742432,2,0.6032304654646609,0.1765796473648766,0.4735051415954372,0.6170297237926448,-0.3533556759357452,-0.9116449952125549,-0.2098652720451355,-26.00613403320312,-42.96240997314453,11.56838989257812,2
1596230235.593317,7,0,102567.778320625,2.000920647901858,-1.016696939930398,1.150523001774919,0.05283511057496071,-0.07140132039785385,-0.1010913029313087,-0.002224981784820557,0.008960902690887451,-0.1038228869438171,2,0.6003533201996683,0.1795356311504421,0.4739648108659121,0.6186276373902491,-0.3469612896442413,-0.9129774570465088,-0.2146856933832169,-25.58338165283203,-43.14591979980469,11.3817138671875,2
1596230235.623339,8,0,102567.808418625,2.001971186529272,-1.021123674898285,1.152572303456393,-0.04492048919200897,-0.1121308505535126,-0.09196121245622635,0.09800821542739868,0.001536011695861816,0.0741083025932312,2,0.6014821864049094,0.1792601920733483,0.4723235937021087,0.6188662387414039,-0.3463122844696045,-0.9138116836547852,-0.2121699303388596,-25.44945526123047,-42.98733520507812,11.50448608398438,2
1596230235.653509,9,0,102567.838515625,2.003101645353637,-1.033600247789124,1.155679162870094,0.07839604467153549,-0.5462765693664551,-0.05158623307943344,0.06091281771659851,-0.02590632438659668,-0.006834745407104492,2,0.6045750694267278,0.1769167390862892,0.4679452316144845,0.6198522101756859,-0.3464915752410889,-0.9150691032409668,-0.2063789069652557,-24.96382904052734,-43.10947418212891,11.8529052734375,2
1596230235.683525,10,0,102567.868613625,1.997372667037809,-1.039276050458914,1.15585512954311,-0.008740612305700779,-0.2415031939744949,0.00339096412062645,-0.01450803875923157,0.01594418287277222,-0.02704155445098877,2,0.6064144284219807,0.173487325325886,0.4643938543691142,0.6216929354451399,-0.3475185930728912,-0.9151400327682495,-0.2043273746967316,-24.80630493164062,-43.15712738037109,12.05911254882812,2
1596230235.715789,11,0,102567.898711625,2.010885535406667,-1.05254774354376,1.158205543393597,0.2805114090442657,0.07813744246959686,0.02840969897806644,0.03308302164077759,0.03022289276123047,-0.1212700605392456,2,0.6085077645663536,0.1743633642224083,0.4638233159758435,0.6198256554653261,-0.3483304083347321,-0.9160850644111633,-0.1986314356327057,-24.65442657470703,-43.13630676269531,12.30130004882812,2
1596230235.743719,12,0,102567.928808625,2.033365182478204,-1.073642204941718,1.161080454090575,0.3664340972900391,-0.1304000467061996,0.09281807392835617,0.1214811205863953,-0.007827520370483398,-0.0982978343963623,2,0.6116422578561926,0.1757906376610984,0.4634381614125183,0.6166168639231131,-0.350125789642334,-0.9172340631484985,-0.1899828016757965,-24.82733917236328,-43.26856994628906,12.61404418945312,2
1596230235.77389,13,0,102567.958906625,2.063920091187796,-1.109499778324646,1.162386247989493,0.3382489085197449,-0.4309439361095428,0.2452188283205032,0.2065367996692657,-0.0138777494430542,-0.1007286310195923,2,0.6173399325985971,0.1746529613549066,0.4614032158463569,0.6127762880653946,-0.355638861656189,-0.9177533984184265,-0.1767755001783371,-24.94416809082031,-42.730224609375,13.11572265625,2
1596230235.80398,14,0,102567.989004625,2.099139135283234,-1.155874571484506,1.157078388112476,0.3937448263168335,-0.4790156185626984,0.4551688432693481,0.2414147555828094,-0.03871715068817139,-0.09730267524719238,2,0.6247129513484234,0.169421427338081,0.4594154607568723,0.6082496246005289,-0.3679045438766479,-0.9156324863433838,-0.1620602160692215,-25.26211547851562,-42.73137664794922,13.66024780273438,2
1596230235.834106,15,0,102568.019101625,2.142682570582372,-1.213341083075525,1.144929507613097,0.3207209408283234,-0.6890168190002441,0.7786217331886292,0.1618142426013947,-0.06741714477539062,-0.03844285011291504,2,0.6338457758193391,0.161144683855017,0.4582916226499925,0.601864440047045,-0.3869979083538055,-0.9106810092926025,-0.1445438414812088,-25.45977020263672,-42.10053253173828,14.85330200195312,2
1596230235.866115,16,0,102568.049199625,2.177910342693284,-1.252443053067614,1.121118865041201,0.2356871515512466,0.2967281639575958,0.9309623241424561,-0.08613848686218262,0.09596645832061768,0.08253049850463867,2,0.6395005523785975,0.1516960518515466,0.4637134325108074,0.5941358079382366,-0.4128338694572449,-0.9005873203277588,-0.1360547095537186,-26.56787872314453,-41.27632141113281,15.43988037109375,2
1596230235.894245,17,0,102568.079296625,2.229892762673727,-1.287366970181719,1.108562282168283,0.8314862251281738,0.4740431010723114,0.1949764490127563,-0.2676140367984772,0.2302095890045166,-0.1402726173400879,2,0.643522743964524,0.1533744494668578,0.4716234078488754,0.5830318418100335,-0.4281564056873322,-0.8950584530830383,-0.1247095093131065,-27.16292572021484,-40.64768981933594,15.69589233398438,2
1596230235.924391,18,0,102568.109394625,2.273952682699034,-1.316079345826068,1.113395022595393,0.427873969078064,0.07344920188188553,0.0820169523358345,0.02820390462875366,-0.02858817577362061,-0.0839729905128479,2,0.6468509400190052,0.1610782628323989,0.4736723944890702,0.5755626665367124,-0.4273695945739746,-0.8972031474113464,-0.1112753078341484,-27.74614715576172,-40.03096771240234,16.50552368164062,2
1596230235.954518,19,0,102568.139492625,2.297304502593422,-1.360230393923145,1.109142100539088,0.4232243299484253,-1.753998398780823,0.1628627926111221,-0.02371913194656372,0.07599103450775146,-0.3313065767288208,2,0.655440339529022,0.1544264604300573,0.467268159051704,0.5728971045859443,-0.435591846704483,-0.8953168988227844,-0.09310086071491241,-27.75382232666016,-39.74013519287109,16.92538452148438,2
1596230235.984667,20,0,102568.169589625,2.334338293505264,-1.459077561615859,1.12054915047924,0.6927516460418701,-2.246747016906738,-0.8190420866012573,-0.2484811544418335,0.1967437267303467,-0.03442370891571045,2,0.6748444110373435,0.1425699824419362,0.441642486060986,0.5737690244123448,-0.4324754476547241,-0.9003395438194275,-0.04851764068007469,-26.10451507568359,-39.67137908935547,19.53399658203125,2
1596230236.01584,21,0,102568.199687625,2.374124808450186,-1.537116933525839,1.149330937434911,0.5183379650115967,-0.1721443384885788,-0.6653110384941101,-0.07598459720611572,0.02545058727264404,0.4094120264053345,2,0.6873142710417227,0.1439142322278794,0.4180994670510142,0.5762644092470663,-0.4088661670684814,-0.9124904274940491,-0.01377557311207056,-24.79139709472656,-39.90469360351562,20.83892822265625,2
1596230236.044695,22,0,102568.229785625,2.412743556010249,-1.557141067689765,1.156551105420841,0.4238771796226501,0.7869231104850769,-0.02205726131796837,0.03443697094917297,-0.03201973438262939,0.2733956575393677,2,0.6881465650957221,0.1539684176850349,0.4202080642757528,0.571115862012145,-0.4024618566036224,-0.9154203534126282,-0.005496062804013491,-24.06242370605469,-39.63758850097656,21.82437133789062,2
1596230236.074792,23,0,102568.259882125,2.452939971279025,-1.575949828244144,1.162263432746186,0.8769689202308655,0.3252827227115631,-0.3200873136520386,0.06254899501800537,0.01199793815612793,-0.3819096088409424,2,0.6884667413691172,0.1644298954678141,0.4235300684963583,0.5653305970817676,-0.3972582221031189,-0.9177046418190002,0.002047288930043578,-24.39655303955078,-39.47767639160156,21.73114013671875,2
1596230236.105096,24,0,102568.289980125,2.534664133339515,-1.654866024166686,1.167373350938949,0.7630476355552673,-0.3772978782653809,-0.02593442425131798,0.3051092624664307,-0.05849665403366089,0.134024977684021,2,0.6976934044363835,0.1723544739682168,0.4176754696781281,0.5559362855061192,-0.3911826312541962,-0.9197226166725159,0.0329643040895462,-24.24501800537109,-39.12312316894531,22.75103759765625,2
1596230236.134967,25,0,102568.320077125,2.543695895980041,-1.665586352267499,1.155600199378313,-0.317036360502243,0.2820051610469818,0.7877958416938782,0.1836223602294922,-0.2096997499465942,0.559069037437439,2,0.7004583173379042,0.1686630807257498,0.419589019680522,0.5521376888199022,-0.4015587568283081,-0.915037214756012,0.03817817941308022,-23.80222320556641,-38.57077026367188,23.60336303710938,2
1596230236.165244,26,0,102568.350175125,2.544700504591342,-1.667967119338962,1.133742167496692,0.4820435047149658,-0.1973279416561127,0.3443078398704529,-0.3436954021453857,0.1622003316879272,-0.3508239984512329,2,0.7032476237247014,0.1611684972179592,0.4248342760248498,0.546793658379503,-0.4212755560874939,-0.9060024619102478,0.04106501117348671,-24.92829895019531,-38.16695404052734,23.31613159179688,2
1596230236.195326,27,0,102568.380273125,2.577769368290636,-1.704101012556742,1.141146930487565,0.3813604414463043,-0.1035084128379822,-0.7541443705558777,-0.2655587196350098,0.2177196145057678,0.02759718894958496,2,0.7073397878560881,0.1653858167170491,0.419176950972334,0.5446180313229625,-0.4128568768501282,-0.9091118574142456,0.05536408722400665,-25.11579132080078,-37.83634185791016,23.82998657226562,2
1596230236.225383,28,0,102568.410370125,2.606583203031885,-1.727245718394822,1.15650304124224,0.2655740082263947,0.2744735479354858,-0.1738483309745789,0.1773020327091217,-0.1081658601760864,0.1809068918228149,2,0.7078258953044025,0.1741924632702562,0.4148844736133611,0.5445276446832812,-0.3976267278194427,-0.9154010415077209,0.06272102147340775,-24.32994079589844,-38.12785339355469,24.48318481445312,2
1596230236.255434,29,0,102568.440468125,2.620626356454808,-1.731994556626926,1.148135281667099,0.1217027381062508,-0.0001022708602249622,0.5914757251739502,0.4112072288990021,-0.1283210515975952,0.0559697151184082,2,0.7086698640043141,0.1752281149635771,0.41913408813625,0.5398229318497344,-0.4048710763454437,-0.9120006561279297,0.06583573669195175,-24.059814453125,-38.09519958496094,24.50997924804688,2
1596230236.285902,30,0,102568.470566125,2.603315538772524,-1.729824215227098,1.128048543088005,-0.3644208908081055,-0.670998215675354,0.6468507647514343,0.06236705183982849,-0.02719306945800781,0.1167081594467163,2,0.7122205824135667,0.1632914569065467,0.4203126034115522,0.5379730407826329,-0.4230177700519562,-0.9035778641700745,0.06784451752901077,-24.88895416259766,-37.41874694824219,24.54745483398438,2
1596230236.315646,31,0,102568.500663125,2.575240339612157,-1.718244526372139,1.116378174658454,-0.2562775015830994,-0.2361446619033813,0.3205599784851074,-0.032096266746521,0.06708753108978271,0.1211955547332764,2,0.7133972104923458,0.1526687104432637,0.4198418442109735,0.5398977870249348,-0.4341770112514496,-0.8985165953636169,0.06448663026094437,-25.00868988037109,-37.48571014404297,24.6285400390625,2
1596230236.345801,32,0,102568.530761125,2.547603020008069,-1.702866620984971,1.105727228277942,-0.6427211165428162,-0.4439238607883453,0.5672615170478821,0.2159192264080048,-0.09953737258911133,0.2786891460418701,2,0.7133948242229338,0.1435184428880266,0.4205955219780149,0.541820688259487,-0.4445788264274597,-0.893790602684021,0.05905943736433983,-25.2698974609375,-37.27426147460938,24.523193359375,2
1596230236.375809,33,0,102568.560858125,2.481724361072764,-1.663527079856301,1.081326257377797,-0.8749995231628418,-0.7186049222946167,1.298726320266724,0.4403756558895111,-0.1841707229614258,0.2058464288711548,2,0.711839844848053,0.1226861252585589,0.4231002914127693,0.5470086204758184,-0.4681385457515717,-0.8825821280479431,0.04353570193052292,-25.93502807617188,-37.37484741210938,24.06533813476562,2
1596230236.405943,34,0,102568.590956125,2.419767684268171,-1.6270077979452,1.033275054669704,-1.354525208473206,-0.6363585591316223,1.932442188262939,0.002728760242462158,-0.03437149524688721,0.4737772941589355,2,0.710972843753503,0.09434199868710719,0.4320586606303459,0.5467563916093197,-0.5111997723579407,-0.8589804768562317,0.02876559458673,-26.51606750488281,-36.87626647949219,23.72122192382812,2
1596230236.436081,35,0,102568.621054125,2.314852898722294,-1.556432851045116,0.990037481676425,-1.753106236457825,-0.1985095292329788,0.6593661308288574,-0.4292860627174377,0.2694710493087769,0.08315527439117432,2,0.7016097493887202,0.06167312434900035,0.4399328075186698,0.557134848128603,-0.5486018061637878,-0.8360465168952942,-0.007880370132625103,-28.50140380859375,-36.93317413330078,22.15716552734375,2
1596230236.466237,36,0,102568.651151125,2.262785101622962,-1.512547836775321,0.983377809943394,-0.3387446403503418,-0.02553056366741657,0.2145851850509644,-0.04482024908065796,0.2176069021224976,-0.3682953119277954,2,0.6935490395317901,0.0534582522218558,0.4424967946651941,0.5659757927220144,-0.5532742738723755,-0.8323741555213928,-0.03226388990879059,-28.63768005371094,-37.16306304931641,21.1658935546875,2
1596230236.496171,37,0,102568.681249125,2.241602124241374,-1.498273980226061,0.9639998618268018,-0.7314147353172302,-0.3356485366821289,0.8612484931945801,0.07928448915481567,-0.06640088558197021,0.04167014360427856,2,0.6909956907839672,0.04319186773443184,0.4469454860641133,0.5664797911307271,-0.56874018907547,-0.8214790225028992,-0.04131883755326271,-29.00235748291016,-37.05484008789062,20.44454956054688,2
1596230236.526294,38,0,102568.711347125,2.193795467289875,-1.485094507751615,0.9431952075496908,-1.046010732650757,-1.314207077026367,0.2500675618648529,-0.08819055557250977,0.1047295331954956,-0.01110827922821045,2,0.6887253248771854,0.0229339618360449,0.4438091565397123,0.572856723145579,-0.5850494503974915,-0.8094384670257568,-0.05026292055845261,-29.32152557373047,-36.87853240966797,20.22076416015625,2
1596230236.556469,39,0,102568.741444125,2.150557926432135,-1.493403926025516,0.9397260021933689,-0.6507527828216553,-1.313299417495728,0.01872367411851883,-0.004234433174133301,0.1331008672714233,-0.1980226039886475,2,0.6907767927766928,0.004368651455853023,0.4294627366151521,0.5816959485702982,-0.588243305683136,-0.8073964715003967,-0.04561667516827583,-28.69485473632812,-37.53928375244141,20.22763061523438,2
1596230236.586552,40,0,102568.771542125,2.132205903066988,-1.499831323053502,0.931179200650203,-0.05957629531621933,-0.01028706319630146,0.4504543840885162,-0.1695564389228821,0.1286316514015198,-0.4092323184013367,2,0.6919470096407641,-0.006930046865410877,0.4243759332650693,0.5840087669725595,-0.595385730266571,-0.8023243546485901,-0.04232262074947357,-28.44637298583984,-37.92405700683594,20.5048828125,2
1596230236.616752,41,0,102568.801639125,2.150274927750198,-1.504516440155306,0.9245560732176897,0.6986231803894043,0.3977612853050232,-0.03386532515287399,-0.1143795251846313,0.1459692120552063,-0.4101172685623169,2,0.6928481463541116,-0.004421199892301275,0.4299268219046408,0.5788823301898873,-0.6008667349815369,-0.7983534932136536,-0.0398837998509407,-28.94063568115234,-37.44575500488281,20.43341064453125,2
1596230236.646735,42,0,102568.831737125,2.180476090145829,-1.517741218029628,0.9252790093057958,0.2898686230182648,0.366312563419342,0.1691765040159225,-0.1042283177375793,-0.07125663757324219,0.08676886558532715,2,0.6957311690953971,0.002516109166386837,0.4338216015499274,0.5724952394924006,-0.6007655262947083,-0.7987886667251587,-0.03190362080931664,-28.88249206542969,-37.13452911376953,20.81771850585938,2
1596230236.67678,43,0,102568.861835125,2.182289647019785,-1.506206657380067,0.9210517496588608,-0.04893935099244118,0.4368482828140259,-0.02071636356413364,-0.1345114707946777,0.01881003379821777,0.3147135376930237,2,0.6931460930870147,0.004924538581781268,0.4395521148548903,0.5712426112078994,-0.6037214398384094,-0.7962383627891541,-0.03904848545789719,-29.34688568115234,-36.91526031494141,20.69992065429688,2
1596230236.706958,44,0,102568.891932125,2.178200921594968,-1.498390357359567,0.9268771029403134,-0.2782275080680847,-0.1169111579656601,-0.2939582765102386,-0.07824450731277466,-0.003098607063293457,0.1567552089691162,2,0.6915370909368834,0.007845053736715124,0.4394238130807034,0.5732551909216338,-0.5987613201141357,-0.7997490763664246,-0.04342981427907944,-29.48893737792969,-36.70176696777344,20.66244506835938,2
1596230236.737211,45,0,102568.922030125,2.153426608000175,-1.490674752313395,0.9333064817995904,-0.4788622856140137,-0.6717249751091003,-0.1397237628698349,0.07356953620910645,-0.02068781852722168,-0.02353644371032715,2,0.6900488504507305,0.003833362921481565,0.4330973288487762,0.579866080116766,-0.5932709574699402,-0.8035922646522522,-0.04763577878475189,-29.03544616699219,-37.19747161865234,20.146240234375,2
1596230236.767295,46,0,102568.952128125,2.136755845486189,-1.500891752319604,0.9346271127716693,-0.2429929971694946,-0.8260952234268188,-0.06137806177139282,0.1558589339256287,-0.01522266864776611,-0.0354340672492981,2,0.6922655116601846,-0.004423509327241559,0.4243340359048172,0.583686224715712,-0.5926675200462341,-0.8043776154518127,-0.04149778932332993,-28.75396728515625,-37.56015014648438,20.11434936523438,2
1596230236.797091,47,0,102568.982225125,2.117962409356208,-1.506932064296194,0.9329048396089312,-0.457058310508728,-0.5888475179672241,0.1579893678426743,0.05406320095062256,0.02486163377761841,0.00970160961151123,2,0.6934116908673646,-0.01332181047829389,0.4172423258334771,0.5872918104114166,-0.5942890048027039,-0.8033531904220581,-0.03800551220774651,-28.16158294677734,-37.95230865478516,20.69512939453125,2
1596230236.827467,48,0,102569.012323125,2.102431704358789,-1.513822838933372,0.930489773749075,-0.1553551554679871,-0.6874857544898987,-0.1649979203939438,-0.1485579609870911,0.09575873613357544,-0.1121817827224731,2,0.6946389123479142,-0.02160611555949316,0.4109883157389514,0.5899988869279282,-0.5964721441268921,-0.8019126653671265,-0.03401991352438927,-27.67321014404297,-37.96580505371094,20.61898803710938,2
1596230236.857383,49,0,102569.042421125,2.095310989031396,-1.521425613866186,0.9378374381782406,-0.1437181383371353,-0.07259746640920639,-0.132416695356369,0.002703070640563965,0.02694380283355713,0.003408849239349365,2,0.6963060179318188,-0.02369921667642599,0.4040739744531241,0.5927230356207112,-0.5908124446868896,-0.8062807321548462,-0.02919255383312702,-27.40251159667969,-38.48098754882812,20.76214599609375,2
1596230236.889951,50,0,102569.072518125,2.092755949761651,-1.510810811876573,0.9352394885977633,0.09514561295509338,0.5923916101455688,0.1338531672954559,0.01243746280670166,-0.06523871421813965,0.02832359075546265,2,0.6940502214881691,-0.02237157429944098,0.407773526624824,0.5928867348467207,-0.5925582051277161,-0.8047412633895874,-0.0355876050889492,-27.27301788330078,-38.38395690917969,20.71624755859375,2
1596230236.91756,51,0,102569.102616125,2.093081629555824,-1.494555958928162,0.9343249720377069,-0.1111120656132698,0.4016039073467255,-0.08962143212556839,-0.1673552989959717,0.09183394908905029,-0.01682418584823608,2,0.6906873640146822,-0.0177690455990101,0.4137670512026851,0.5928170867551481,-0.592634916305542,-0.8041980266571045,-0.04527045413851738,-27.51718139648438,-38.18132019042969,20.32449340820312,2
1596230236.950665,52,0,102569.132713125,2.09015774889858,-1.480766903124126,0.9431092588438047,0.0923793613910675,0.4445966482162476,-0.4597284495830536,-0.1302165389060974,0.07844829559326172,-0.05467855930328369,2,0.6880895030125844,-0.01151322367360891,0.415057246822866,0.5950863134888285,-0.5848957896232605,-0.8093879818916321,-0.05280056223273277,-27.57688903808594,-38.27769470214844,19.871826171875,2
1596230236.977816,53,0,102569.162811125,2.094946300860545,-1.46548108954735,0.9551834891578764,0.09739206731319427,0.7927967309951782,-0.2255317121744156,0.1311280727386475,-0.03820395469665527,0.0683368444442749,2,0.685308443728325,-0.0009452708812407451,0.4181565928782215,0.5962353606092241,-0.5742596983909607,-0.8164197206497192,-0.06070288643240929,-27.44092559814453,-38.43740081787109,19.76907348632812,2
1596230237.010103,54,0,102569.192909125,2.094856085639884,-1.443111848475226,0.9571572772984857,-0.01098321843892336,0.6027901768684387,0.03086899593472481,0.1852513551712036,-0.07866108417510986,-0.05065786838531494,2,0.6806580375259155,0.006412335107750189,0.4251837302770656,0.5965587830798205,-0.571158766746521,-0.8175579309463501,-0.07332703471183777,-27.75981903076172,-38.80483245849609,19.00054931640625,2
1596230237.037989,55,0,102569.223006125,2.099087673397175,-1.434468607226054,0.9554216610994541,0.1498143821954727,0.1759724766016006,0.1006283164024353,0.1394262313842773,0.02594614028930664,-0.162954568862915,2,0.6787321316849848,0.009792384677475119,0.4298955421888411,0.5953289819697519,-0.5719084739685059,-0.8165572285652161,-0.07845360785722733,-27.97593688964844,-38.6912841796875,18.85812377929688,2
1596230237.070009,56,0,102569.253104875,2.107845740785792,-1.441158490472596,0.9538652092666672,0.1340159773826599,-0.06604357063770294,-0.01615111529827118,-0.1668070554733276,0.08593255281448364,-0.06032949686050415,2,0.6800740260694995,0.01021120971825934,0.4306848000371082,0.5932163950948658,-0.5736801624298096,-0.8156577348709106,-0.0747900977730751,-28.398193359375,-38.43043518066406,18.90374755859375,2
1596230237.098132,57,0,102569.283202875,2.114469126380062,-1.440792748119382,0.9612908479403246,0.200057327747345,0.5186935663223267,-0.4036340713500977,-0.24428790807724,0.04406058788299561,0.04470628499984741,2,0.6801912193207935,0.015283027745783,0.4305836649266047,0.5930464445668951,-0.5676313638687134,-0.8199312090873718,-0.07421267032623291,-28.35866546630859,-38.43653869628906,19.15328979492188,2
1596230237.130199,58,0,102569.313299875,2.124721877398014,-1.429047121697397,0.9732801024459879,0.2654575109481812,0.6627375483512878,-0.2774370014667511,0.06422001123428345,0.005226850509643555,0.0132712721824646,2,0.6779017744530367,0.02663028746550372,0.4340725637257921,0.5927234511463634,-0.5569483041763306,-0.8267354965209961,-0.07948002219200134,-28.26564788818359,-38.71739196777344,18.74053955078125,2
1596230237.158343,59,0,102569.343397875,2.135705032490707,-1.425417039366398,0.9801950217915925,0.1847101747989655,0.08909204602241516,-0.1419969350099564,0.1752424240112305,-0.009801745414733887,-0.03442567586898804,2,0.6771345474046722,0.03395936437928981,0.4365126962316289,0.5914323836288067,-0.5509862899780273,-0.8306059837341309,-0.08067113161087036,-28.27461242675781,-38.50347900390625,18.7620849609375,2
1596230237.189932,60,0,102569.373495875,2.143784970624731,-1.434521233404358,0.985085276892128,0.1672794818878174,-0.09400287270545959,-0.150520458817482,0.05643004179000854,-0.02437019348144531,0.0004687309265136719,2,0.6790942333490123,0.0357996570979921,0.4343706728580203,0.5906533675041378,-0.5476668477058411,-0.8333192467689514,-0.07509881258010864,-28.08894348144531,-38.50627136230469,18.76910400390625,2
1596230237.218548,61,0,102569.403592875,2.151748947035124,-1.439909877570986,0.9897703512391233,0.178085520863533,0.1608984023332596,-0.1172181591391563,-0.02033936977386475,0.01897132396697998,0.03420579433441162,2,0.6802129665947535,0.03862904109621712,0.4335078844244321,0.5898211312118036,-0.5441868901252747,-0.8358999490737915,-0.07163623720407486,-27.83988189697266,-38.61637115478516,19.09207153320312,2
1596230237.250216,62,0,102569.433690875,2.160042339430293,-1.44262916927436,0.9947769254297562,0.1810730248689651,0.06562532484531403,-0.2503347396850586,-0.2208909392356873,0.08378803730010986,-0.05617022514343262,2,0.6807241408753937,0.0424786257454034,0.4335506792464345,0.5889347522120032,-0.5402225255966187,-0.8386374711990356,-0.06962042301893234,-27.88317108154297,-38.48802947998047,19.25692749023438,2
1596230237.278756,63,0,102569.463787875,2.171439374355557,-1.447432241316563,1.010102046645821,0.3121446073055267,0.3200651705265045,-0.6272695660591125,-0.1354360580444336,0.05819803476333618,-0.007937192916870117,2,0.6817095514584171,0.05054013602933055,0.4307485285357633,0.5892142296080705,-0.5277328491210938,-0.8468860983848572,-0.06543556600809097,-27.26409149169922,-38.83588409423828,19.44699096679688,2
1596230237.310508,64,0,102569.493885875,2.185534788470559,-1.444796527487639,1.026191803017953,0.2908624112606049,0.6018971800804138,-0.3196530044078827,0.07888835668563843,-0.02274942398071289,0.07450735569000244,2,0.6808853421991291,0.0619876880683799,0.4310395038558877,0.5888612308217072,-0.5139726400375366,-0.8553322553634644,-0.06510535627603531,-27.12996673583984,-38.9093017578125,19.33941650390625,2
1596230237.33891,65,0,102569.523983875,2.195342692972073,-1.440236619246784,1.034276755318232,0.1282229870557785,0.219374030828476,-0.2807027995586395,-0.01300960779190063,0.005607008934020996,0.01709926128387451,2,0.6796180459747583,0.06961589493394865,0.4330830013784768,0.5879728913468949,-0.5067975521087646,-0.8594928979873657,-0.06654587388038635,-26.93193054199219,-39.27937316894531,19.203857421875,2
1596230237.369124,66,0,102569.554080875,2.201470741861186,-1.439720824948046,1.047170895593186,0.1636210680007935,0.2154558300971985,-0.4749968647956848,-0.007148861885070801,0.03354620933532715,0.03967905044555664,2,0.6793103228212722,0.0765561377582562,0.431238626256075,0.5888208389031534,-0.4957340061664581,-0.8660120964050293,-0.06535328924655914,-26.71926116943359,-39.34432220458984,19.33636474609375,2
1596230237.399194,67,0,102569.584178875,2.206316496594536,-1.434554885341755,1.059145781573872,0.09891000390052795,0.3241533637046814,-0.2721118628978729,0.01492014527320862,0.007233798503875732,0.08385622501373291,2,0.6779957926735607,0.08409338369417935,0.430858770790937,0.5895853819154699,-0.4850804209709167,-0.8719375729560852,-0.06650001555681229,-26.26856994628906,-39.57520294189453,19.26126098632812,2
1596230237.430812,68,0,102569.614276875,2.207628813676,-1.428441542420295,1.067786558384339,0.02766217663884163,0.2082053124904633,-0.3791448771953583,-0.1713776290416718,0.01808083057403564,0.03230750560760498,2,0.6766046254075305,0.08949770667859847,0.4307395135815061,0.5904742607881182,-0.4771884977817535,-0.8761356472969055,-0.06839267909526825,-26.09593200683594,-39.68547058105469,19.189208984375,2
1596230237.45955,69,0,102569.644373875,2.202885613740213,-1.411033728834858,1.079592972167566,-0.06501773744821548,0.8833489418029785,-0.3000448048114777,-0.003735840320587158,-0.09518498182296753,0.17225182056427,2,0.6730532509496082,0.09736739487364104,0.4316749001151311,0.5926007845824457,-0.4656803905963898,-0.8817659020423889,-0.07503782212734222,-25.78857421875,-39.84292602539062,18.76116943359375,2
1596230237.490036,70,0,102569.674471875,2.197571355956661,-1.374529037866581,1.084987167828016,0.06281518936157227,0.8794136047363281,-0.127953514456749,0.3082934617996216,0.07495272159576416,0.02187573909759521,2,0.6653749978924619,0.1083916566898428,0.4406926494444253,0.5927203551603957,-0.4579598605632782,-0.8842974305152893,-0.09105472266674042,-26.20746612548828,-40.08969879150391,18.49264526367188,2
1596230237.519559,71,0,102569.704569875,2.201935033033562,-1.368685973007817,1.088942082498374,-0.005147605203092098,-0.07222951948642731,-0.1453188955783844,-0.01846906542778015,0.03250586986541748,-0.08324271440505981,2,0.6638601542300309,0.11303361529721,0.4427350817657456,0.5920292460654661,-0.4539899528026581,-0.8861371278762817,-0.09302619844675064,-26.16419219970703,-40.20455169677734,17.88433837890625,2
1596230237.566513,72,0,102569.734666875,2.191742792849143,-1.358474686451371,1.096474933414331,-0.05913141369819641,0.2823930084705353,-0.398118257522583,-0.1196341216564178,0.04492980241775513,-0.01399850845336914,2,0.6622255505060788,0.1154706579158565,0.4408203980464195,0.5948118630894368,-0.4464784264564514,-0.8896028399467468,-0.09624769538640976,-26.10743713378906,-40.32135772705078,17.66802978515625,2
1596230237.579724,73,0,102569.764764875,2.196372380586684,-1.346010588463525,1.109100675824907,0.2943712770938873,0.761174738407135,-0.3198985159397125,0.08892866969108582,0.04803216457366943,-0.09022629261016846,2,0.6592664068735371,0.1253836421973507,0.4424846243100201,0.5948564592907344,-0.4342599511146545,-0.8952984213829041,-0.09929349273443222,-25.90427398681641,-40.62548828125,17.47998046875,2
1596230237.609967,74,0,102569.794861875,2.211831351262965,-1.342724984692776,1.117302620259305,0.2387791872024536,0.2755768895149231,-0.1912621259689331,0.020692378282547,0.02987003326416016,-0.04827678203582764,2,0.6575597888222429,0.1344882339923554,0.4456626876716802,0.5923789788387304,-0.4267637133598328,-0.8989219665527344,-0.09905607998371124,-25.81474304199219,-40.61810302734375,17.39434814453125,2
1596230237.640021,75,0,102569.824959875,2.215080445625805,-1.343452289688828,1.12836144210268,0.01875098422169685,-0.06784018129110336,-0.4997373223304749,-0.05614009499549866,0.009685218334197998,0.07226979732513428,2,0.657501088758677,0.1394374456199695,0.4430222545906544,0.5932796911300695,-0.4171244204044342,-0.9037118554115295,-0.09649903327226639,-25.69466400146484,-41.09471130371094,17.50485229492188,2
1596230237.670437,76,0,102569.855057875,2.206044724813129,-1.331212722944442,1.142663590594894,0.08213206380605698,0.3988221883773804,-0.4123854339122772,0.1184761524200439,0.02797460556030273,-0.007179439067840576,2,0.6554359167646445,0.145409370719483,0.4399782666003337,0.5963883169950746,-0.4033142030239105,-0.9097425937652588,-0.09851974993944168,-25.53182983398438,-40.99863433837891,17.492919921875,2
1596230237.700209,77,0,102569.885154875,2.217141305641043,-1.330402556884934,1.15175622392282,0.1137956157326698,0.2767946124076843,-0.116086058318615,-0.08100339770317078,-0.06210958957672119,0.05966365337371826,2,0.6544163198491734,0.1526525367959247,0.440757049124278,0.5951215921229607,-0.3951835632324219,-0.9134799242019653,-0.0968729630112648,-24.93531036376953,-41.37879943847656,17.45355224609375,2
1596230237.730182,78,0,102569.915252875,2.204824385707118,-1.307016385679823,1.156740538285391,0.01375799067318439,0.3979674279689789,-0.4056544303894043,-0.05802285671234131,0.09223258495330811,-0.07361996173858643,2,0.6501993829744501,0.1574523768764727,0.4431800728195317,0.5966916592759908,-0.3884097933769226,-0.9154965877532959,-0.104899026453495,-24.87936401367188,-41.31692504882812,17.38864135742188,2
1596230237.760306,79,0,102569.945350875,2.219756782645307,-1.308857535688047,1.174301816258287,0.3650691509246826,0.4592950940132141,-0.4657814502716064,0.1013297736644745,0.001151680946350098,-0.06576347351074219,2,0.6493701107844945,0.168274085839301,0.441606374120712,0.5958070776871631,-0.3730141818523407,-0.9224204421043396,-0.1000045835971832,-24.58259582519531,-41.79646301269531,17.06088256835938,2
1596230237.807723,80,0,102569.975447875,2.227932037967506,-1.305967117596976,1.1817188169069,0.03636876121163368,0.1607290506362915,-0.01039178483188152,0.1057610809803009,-0.06774783134460449,0.07920169830322266,2,0.6479914692595209,0.1745355279944169,0.4426801543380041,0.5947088765371098,-0.3661102652549744,-0.9252594113349915,-0.09928881376981735,-24.62602233886719,-41.78440856933594,17.1282958984375,2
1596230237.820494,81,0,102570.005545875,2.226431267495683,-1.304592154992012,1.184450208014,-0.0420343279838562,0.03566963225603104,-0.2899891436100006,0.02601662278175354,0.05562824010848999,0.1026431322097778,2,0.6478013427736014,0.1754706432366503,0.4418323956723882,0.5952710851738763,-0.3635340332984924,-0.9262920618057251,-0.09912694990634918,-24.37033081054688,-41.64481353759766,17.25753784179688,2
1596230237.869406,82,0,102570.035643875,2.218341963792294,-1.291425348597728,1.194466919008258,0.04547079280018806,0.317361980676651,-0.2479947507381439,0.03537896275520325,-0.05756717920303345,-0.00230562686920166,2,0.6455626935456886,0.1804945550524881,0.4405623831540786,0.5971392548831189,-0.3532605171203613,-0.9300198554992676,-0.1013410463929176,-24.06687164306641,-42.02677917480469,16.88815307617188,2
1596230237.880963,83,0,102570.065740875,2.220761215110052,-1.282900461116204,1.195847223593087,0.09013447165489197,0.3676216900348663,0.1001332774758339,0.08651056885719299,-0.00848543643951416,-0.05959343910217285,2,0.6434520518965039,0.184329493442342,0.4436005887187866,0.5959953946272584,-0.3511523604393005,-0.9305262565612793,-0.1039841920137405,-24.21122741699219,-42.0137939453125,16.85345458984375,2
1596230237.926636,84,0,102570.095838875,2.231946070544443,-1.287935937157564,1.195916150909074,0.06846560537815094,-0.02904509752988815,-0.09519103914499283,-0.02583366632461548,0.04296183586120605,0.04362159967422485,2,0.643533888866097,0.1864556152957443,0.4452866148871493,0.5939851321094236,-0.3516103327274323,-0.9305515289306641,-0.1021968722343445,-24.30938720703125,-41.81179809570312,16.97076416015625,2
1596230237.94091,85,0,102570.125935875,2.228093247607999,-1.283125152470709,1.202008599285502,0.04753942042589188,0.1171693354845047,-0.2288798689842224,0.0102614164352417,-0.02690768241882324,0.07151943445205688,2,0.6427872246590768,0.1889078859208962,0.4437894288710934,0.5951381436247841,-0.3456717729568481,-0.9327650666236877,-0.1022767871618271,-24.124755859375,-41.87926483154297,16.6602783203125,2
1596230237.988886,86,0,102570.156033875,2.234385485953875,-1.282992356805061,1.207614572618655,0.1200025677680969,0.2793355584144592,-0.07722026854753494,0.07312268018722534,-0.03729498386383057,-0.022652268409729,2,0.6421167168672218,0.1930484396493926,0.4439528083122407,0.594410972615355,-0.3406388163566589,-0.9347712397575378,-0.100836843252182,-23.95163726806641,-42.144775390625,16.9412841796875,2
1596230238.00112,87,0,102570.186131875,2.243142370632174,-1.285347406308648,1.207441291436351,0.1186127066612244,0.02149870991706848,0.06494384258985519,0.01251524686813354,0.03864657878875732,-0.02966028451919556,2,0.6417924574389318,0.1950960815020979,0.4458497001123615,0.5926702615170107,-0.3410306572914124,-0.9347096681594849,-0.1000799238681793,-23.90711975097656,-42.17854309082031,16.89877319335938,2
1596230238.050304,88,0,102570.216228875,2.252480735823544,-1.292722966748344,1.210545450386061,0.09560370445251465,0.1727546453475952,-0.1283224672079086,0.02517971396446228,-0.02220571041107178,0.0196378231048584,2,0.6424833107649776,0.1970601279896983,0.4452791764528467,0.591700096474829,-0.338967889547348,-0.9358084201812744,-0.09676500409841537,-24.23352813720703,-42.01979064941406,17.00726318359375,2
1596230238.061281,89,0,102570.246326875,2.257648326563065,-1.293289223187464,1.2101685996906,0.08625591546297073,0.03530515357851982,0.1754606664180756,0.04549199342727661,0.04643118381500244,-0.06073540449142456,2,0.6421039605641782,0.1984128152869548,0.4467421294291006,0.5905560676935329,-0.3393619954586029,-0.9356755018234253,-0.09666971862316132,-24.01494598388672,-41.97908782958984,17.07666015625,2
1596230238.110208,90,0,102570.276425,2.266503433949387,-1.300847557725851,1.208220615356885,0.04812297597527504,0.05408258736133575,-1.674843952059746e-05,0.01669129729270935,0.02826136350631714,-0.005594730377197266,2,0.6429462347824534,0.1983084624805009,0.4475305311249059,0.5890758350744134,-0.3418386876583099,-0.9349863529205322,-0.0945877879858017,-24.25605773925781,-41.88819885253906,17.11126708984375,2
1596230238.12143,91,0,102570.306522,2.270018630839006,-1.302004005658041,1.205796106892818,0.0334458127617836,0.05918428301811218,0.2148517072200775,-0.01615530252456665,0.01203709840774536,-0.04322779178619385,2,0.6428987500221759,0.1982022559967902,0.4489449876180039,0.5880862763506672,-0.3441323041915894,-0.934123694896698,-0.09479412436485291,-24.38552093505859,-41.89221954345703,16.9818115234375,2
1596230238.169029,92,0,102570.33662,2.278755194793855,-1.307456299265379,1.200134971046978,0.01093002129346132,0.001022954937070608,0.152703732252121,-0.04211387038230896,0.08500099182128906,0.09182202816009521,2,0.6433654532209467,0.1973199280455551,0.4515061696441903,0.5859077851445313,-0.3497443795204163,-0.9320879578590393,-0.09429147839546204,-24.7125244140625,-41.83782196044922,17.01486206054688,2
1596230238.181686,93,0,102570.366718,2.268395324969464,-1.299444283188323,1.198926528303271,-0.1929865479469299,-0.0444616824388504,-0.09402495622634888,-0.0908481776714325,-0.0676959753036499,0.04851794242858887,2,0.6425962317716811,0.195892399040426,0.4514167848916063,0.5872982885650728,-0.3500629067420959,-0.9316495656967163,-0.0973924994468689,-24.83006286621094,-41.74795532226562,17.00534057617188,2
1596230238.229286,94,0,102570.396815,2.259395671941831,-1.290846456952479,1.196630477362253,-0.1041552275419235,-0.008392304182052612,0.2246914803981781,0.0740688145160675,0.02209329605102539,-0.01727938652038574,2,0.6415646879640446,0.1946794217221269,0.4522424233240554,0.5881934057819634,-0.3512672483921051,-0.9308128356933594,-0.1009893491864204,-24.74181365966797,-41.73208618164062,16.88400268554688,2
1596230238.241869,95,0,102570.426913,2.256144546756217,-1.28931550763703,1.190467991887773,-0.09487134963274002,-0.02990642562508583,0.01759603247046471,-0.04338926076889038,0.02562129497528076,-0.01713567972183228,2,0.6416021841083399,0.1918005953699982,0.4536834643130463,0.5879883991534962,-0.3566155433654785,-0.9285427927970886,-0.1031183376908302,-24.94524383544922,-41.62032318115234,16.94732666015625,2
1596230238.288967,96,0,102570.45701,2.249417731274596,-1.281265914318553,1.188887723309719,-0.1384908258914948,0.1543482840061188,0.1364136040210724,0.001128286123275757,-0.02557259798049927,-0.01667356491088867,2,0.6404328304709968,0.1914250785929942,0.4547736359497101,0.5885432558866694,-0.3571800589561462,-0.9279550313949585,-0.1064044609665871,-24.80065155029297,-41.73307037353516,16.56637573242188,2
1596230238.302096,97,0,102570.487108,2.245937775507524,-1.27310210389854,1.182093206825334,-0.03340541571378708,0.09141884744167328,0.164459615945816,-0.02180004119873047,0.070945143699646,-0.03794252872467041,2,0.6389431789143332,0.1901834614475857,0.4584616931340293,0.58770302429296,-0.362319141626358,-0.9254013299942017,-0.1111637279391289,-25.34123992919922,-41.51181793212891,16.29611206054688,2
1596230238.349452,98,0,102570.517206,2.243781845733494,-1.264564328171877,1.174643561431518,-0.1852941066026688,-0.08821065723896027,0.3935075104236603,0.02499896287918091,-0.1316190958023071,0.09671705961227417,2,0.6372054980611801,0.1892224125496426,0.462850547641885,0.5864583445718613,-0.3679197132587433,-0.9225523471832275,-0.1163280606269836,-25.57947540283203,-41.55667877197266,16.30233764648438,2
1596230238.362316,99,0,102570.547303,2.238863531956362,-1.257611648995467,1.164529136643691,-0.1593761593103409,0.2963841557502747,0.1143923848867416,-0.06322607398033142,0.09837061166763306,0.03437405824661255,2,0.636051089740554,0.1859114853352914,0.4667342920081583,0.5856918129081747,-0.3759600520133972,-0.9186023473739624,-0.1217518597841263,-26.11620330810547,-41.33889770507812,15.82009887695312,2
1596230238.410703,100,0,102570.577401,2.23228488863042,-1.246714950143033,1.163156363898183,-0.0124254459515214,0.1876181662082672,-0.09350806474685669,-0.07015669345855713,0.1102253198623657,-0.05146700143814087,2,0.6341107037740119,0.1864998632560372,0.4686894400504166,0.5860474861002141,-0.3758064210414886,-0.9180589914321899,-0.1262428313493729,-26.24801635742188,-41.27738952636719,15.71456909179688,2
1596230238.422417,101,0,102570.607499,2.224810656418274,-1.228456116825557,1.164263068174334,-0.1515115648508072,0.3415141105651855,0.01328121405094862,0.06512999534606934,-0.08305633068084717,0.07438331842422485,2,0.630528013838726,0.18990360377318,0.4719312124108959,0.5862184488446738,-0.3724817037582397,-0.9184972047805786,-0.1327420920133591,-26.42520904541016,-41.52777099609375,15.36917114257812,2
1596230238.466007,102,0,102570.637596,2.218197698644282,-1.217677283725935,1.163680450204239,-0.04340213537216187,-0.0353674627840519,-0.05801904201507568,-0.03527471423149109,0.06911498308181763,-0.03738033771514893,2,0.6286034137411163,0.1907632309397871,0.4735646439249583,0.5866888296702835,-0.3715313971042633,-0.9182666540145874,-0.1369342803955078,-26.56946563720703,-41.61504364013672,15.01101684570312,2
1596230238.482818,103,0,102570.667694,2.208506097460452,-1.211254533646506,1.164039063011979,-0.1348407417535782,-0.01814168319106102,-0.0460553877055645,0.008679449558258057,-0.02612364292144775,0.03570318222045898,2,0.6280108418436333,0.1897407219911445,0.472624398257614,0.5884105378342994,-0.3703356087207794,-0.9184085726737976,-0.1392016857862473,-26.55329132080078,-41.80130767822266,14.96282958984375,2
1596230238.528647,104,0,102570.697792,2.201580260677716,-1.203107288364957,1.161860176589873,-0.1276902705430984,0.1165354177355766,0.1586863398551941,0.04484015703201294,-0.03342354297637939,-0.008778154850006104,2,0.6267039254544071,0.1891443255142374,0.4738141696097043,0.5890387878179568,-0.3710557222366333,-0.9175443649291992,-0.1429332345724106,-26.4488525390625,-41.659912109375,14.84698486328125,2
1596230238.542924,105,0,102570.727889,2.197560513891214,-1.196875873195859,1.155318915178872,-0.05625764280557632,0.08968628197908401,0.04950256645679474,-5.176663398742676e-05,0.0406564474105835,-0.01399910449981689,2,0.6254773483257762,0.1872489005882354,0.476599530423913,0.5887009772967424,-0.375737190246582,-0.9149237275123596,-0.1474318653345108,-26.87168121337891,-41.6932373046875,14.48440551757812,2
1596230238.588148,106,0,102570.757987,2.19539551556394,-1.191495196274215,1.155492458322892,0.01993749663233757,0.1095286160707474,-0.03118648752570152,-0.02882751822471619,0.05571156740188599,-0.04231560230255127,2,0.6244006606169589,0.1882218821966262,0.4775900777340928,0.5887309232775297,-0.3747910261154175,-0.9149937629699707,-0.1493926793336868,-26.75504302978516,-41.60564422607422,14.36508178710938,2
1596230238.60337,107,0,102570.788084,2.196355880028488,-1.187202207298859,1.15845223605374,0.03777343034744263,0.1676459163427353,-0.08410303294658661,0.003051787614822388,0.02528643608093262,-0.003384172916412354,2,0.623347609057825,0.1909050291855738,0.478298992033702,0.5884072954092616,-0.3716332316398621,-0.9161839485168457,-0.149986058473587,-26.6700439453125,-41.55178833007812,14.26504516601562,2
1596230238.649072,108,0,102570.818182,2.19571311560252,-1.180392811433847,1.159780099497072,-0.01616264879703522,0.2236655950546265,-0.008312460035085678,0.06487774848937988,-0.01110106706619263,0.04407191276550293,2,0.6218076034049012,0.1932105897662972,0.4798197182874773,0.5880458570580572,-0.3694777190685272,-0.9167152643203735,-0.1520499438047409,-26.77095031738281,-41.58642578125,14.12811279296875,2
1596230238.663294,109,0,102570.84828,2.194020907174125,-1.174143819466608,1.159706626323194,-0.008473790250718594,0.07155609875917435,-0.03904550895094872,0.02023893594741821,0.01003313064575195,-0.02058100700378418,2,0.6204684181554947,0.1944941285099663,0.4812858203136136,0.5878392516818169,-0.3685827255249023,-0.916685938835144,-0.1543819457292557,-26.86052703857422,-41.86243438720703,14.11196899414062,2
1596230238.706601,110,0,102570.878377,2.191607963260333,-1.171092917714261,1.161448733206693,-0.01242877449840307,-0.01830032840371132,-0.08907949179410934,-0.006710529327392578,0.01659691333770752,-0.0121225118637085,2,0.6200117484256351,0.1953034569442652,0.4809843911052153,0.5882992186154665,-0.3666382133960724,-0.917380690574646,-0.1548839807510376,-26.64272308349609,-41.42771911621094,14.004638671875,2
1596230238.723544,111,0,102570.908475,2.189409153553351,-1.16981887352132,1.164031701393019,0.01449305564165115,0.01081412844359875,-0.07032112032175064,-0.004560619592666626,0.02367854118347168,0.01942563056945801,2,0.6199843490789894,0.1959759354860307,0.4799337738011871,0.5889622306729856,-0.3642580211162567,-0.9184056520462036,-0.1544256806373596,-26.70854187011719,-41.79102325439453,13.97882080078125,2
1596230238.767722,112,0,102570.938573,2.188185081346034,-1.168273018889196,1.165726654447102,-0.01847520843148232,0.01799210347235203,-0.05991651862859726,-0.02252122759819031,-0.0148734450340271,-0.0008248090744018555,2,0.6197758118023314,0.1966944428805097,0.479527660598281,0.5892728279476098,-0.3625859022140503,-0.9190749526023865,-0.1543784737586975,-26.49816131591797,-41.74259948730469,13.85968017578125,2
1596230238.783797,113,0,102570.96867,2.186804491294806,-1.167004277033654,1.16851744659691,0.08939450234174728,-0.05571282282471657,-0.1685477197170258,-0.01888653635978699,0.04052841663360596,-0.02454352378845215,2,0.6196776322744556,0.197698286585066,0.4786493101236277,0.5897541159396411,-0.3600297868251801,-0.9201711416244507,-0.1538300365209579,-26.62552642822266,-41.76256561279297,13.99899291992188,2
1596230238.830159,114,0,102570.998768,2.184559175309538,-1.167647352108708,1.174252456369926,0.0359153151512146,-0.06383872032165527,-0.1616828739643097,-0.04797369241714478,0.01166117191314697,0.01702016592025757,2,0.6201953114490095,0.1989847988979434,0.4760070901815451,0.5909146738626703,-0.355268657207489,-0.9224013686180115,-0.1515256464481354,-26.37925720214844,-42.04375457763672,14.05816650390625,2
1596230238.843789,115,0,102571.028865,2.184837819961822,-1.168180803702254,1.177053660464966,0.02416905015707016,0.02321218885481358,-0.03041858226060867,0.03182002902030945,0.009199023246765137,0.0210195779800415,2,0.6203619004452049,0.1999739285820365,0.4750528814420985,0.59117370397198,-0.3529707491397858,-0.9234796762466431,-0.1503230780363083,-26.41812896728516,-42.05557250976562,14.12063598632812,2
