loggingTime,loggingSample,identifierForVendor,motionTimestamp_sinceReboot,motionYaw,motionRoll,motionPitch,motionRotationRateX,motionRotationRateY,motionRotationRateZ,motionUserAccelerationX,motionUserAccelerationY,motionUserAccelerationZ,motionAttitudeReferenceFrame,motionQuaternionX,motionQuaternionY,motionQuaternionZ,motionQuaternionW,motionGravityX,motionGravityY,motionGravityZ,motionMagneticFieldX,motionMagneticFieldY,motionMagneticFieldZ,motionMagneticFieldCalibrationAccuracy
1596230016.284815,1,0,102348.4486777917,-0.9566581207636886,1.029372677747088,1.374847757761645,-0.3048258423805237,0.08264683187007904,0.2646690607070923,-0.05833238363265991,-0.04527735710144043,0.03015989065170288,2,0.6654735967183322,0.08351972043626574,-0.03236063057165595,0.7410278437626251,0.1668511629104614,-0.9808634519577026,-0.1003386974334717,-9.419456481933594,-48.62099456787109,12.23077392578125,2
1596230016.294403,2,0,102348.4787747917,-0.9474045274143162,1.019934883249515,1.372958859358202,0.120296522974968,0.03473912924528122,-0.2794163823127747,-0.1020244956016541,0.06637817621231079,-0.0200008749961853,2,0.6645025136689776,0.08365010020709904,-0.03262529051136265,0.741872387312722,0.1674745678901672,-0.9804939031600952,-0.102878138422966,-9.587394714355469,-48.56999969482422,11.98831176757812,2
1596230016.324579,3,0,102348.5088727917,-0.9721039312795002,1.044156433472561,1.36719723635982,-0.05473548173904419,-0.05409061163663864,-0.09169362485408783,0.07228550314903259,0.02023118734359741,-0.006754934787750244,2,0.6646569015309212,0.08611790666905136,-0.03544382821914549,0.74132225001518,0.1747982054948807,-0.9793452024459839,-0.1016298159956932,-9.313995361328125,-48.61724853515625,11.99966430664062,2
1596230016.354624,4,0,102348.5389707917,-0.9664502537588698,1.035832775115104,1.36821563400584,0.01051161251962185,-0.08485841751098633,0.06859015673398972,-0.03358650207519531,-0.03372961282730103,-0.02922135591506958,2,0.6644958910230518,0.08460970334447532,-0.03581011109078736,0.741622626535725,0.1730882823467255,-0.9795506000518799,-0.1025728210806847,-9.31195068359375,-48.59857940673828,12.05181884765625,2
1596230016.38495,5,0,102348.5690677917,-0.9687778101704113,1.03879159258384,1.367671956434307,0.00944982748478651,0.2027468234300613,-0.1091220453381538,-0.08481881022453308,0.0675848126411438,0.04403412342071533,2,0.664525393186493,0.0850938022932943,-0.0358517466799641,0.741538706967295,0.173849493265152,-0.9794411063194275,-0.1023300960659981,-9.047248840332031,-48.47193908691406,12.10430908203125,2
1596230016.414871,6,0,102348.5991657917,-0.9730611841522355,1.051100308983048,1.366538752596042,-0.0140304071828723,0.2931558787822723,0.04669829457998276,0.04287052154541016,-0.02432239055633545,0.01284468173980713,2,0.6646719674888788,0.08856836328698722,-0.03368782237974044,0.7411018118410159,0.1760590523481369,-0.9792118668556213,-0.1007336378097534,-9.07769775390625,-48.56249237060547,11.93988037109375,2
1596230016.445055,7,0,102348.6292627917,-0.9690679691231902,1.050063638817528,1.368771052298875,0.07100643217563629,-0.120826244354248,0.02170581370592117,-0.002708852291107178,0.002333402633666992,-0.07500219345092773,2,0.664974888543661,0.08884958402996024,-0.03188450468244136,0.7408761406875298,0.1740578711032867,-0.9796621799468994,-0.09982829540967941,-9.281646728515625,-48.58393859863281,11.84994506835938,2
1596230016.475133,8,0,102348.6593607917,-0.986833459461727,1.065200538414742,1.36781555726729,0.04381752386689186,-0.062438003718853,-0.1513722687959671,0.02139365673065186,0.07673883438110352,0.01086461544036865,2,0.6658016274851839,0.08882794110322981,-0.03371328959953679,0.7400548157435358,0.1763678193092346,-0.9794700145721436,-0.09763558208942413,-9.280426025390625,-48.43766021728516,12.16744995117188,2
1596230016.505779,9,0,102348.6894587917,-0.9925980190588302,1.068396764383497,1.366638154289186,0.1269960254430771,-0.0433763675391674,0.1068382263183594,-0.01166963577270508,-0.06782054901123047,-0.08538085222244263,2,0.6658558421572237,0.08844475022894474,-0.03513872796335638,0.7399857564196323,0.1776903718709946,-0.9792320132255554,-0.09762704372406006,-9.227737426757812,-48.59933471679688,12.30435180664062,2
1596230016.535309,10,0,102348.7195557917,-1.006627225680157,1.084208755260619,1.375348502144073,0.2250787913799286,0.1337142288684845,0.1735709011554718,-0.1034637987613678,0.03061109781265259,-0.06799417734146118,2,0.6686016946705415,0.08697828266016319,-0.03239529160588245,0.7378056167618881,0.171665221452713,-0.9809607863426208,-0.09081310778856277,-9.259376525878906,-48.33426666259766,12.39419555664062,2
1596230016.565488,11,0,102348.7496537917,-1.044390634302695,1.12342295014622,1.375556837987993,0.2618154287338257,0.01990140788257122,-0.3044488131999969,-0.02595606446266174,0.09286212921142578,-0.09055447578430176,2,0.6709455505960273,0.08871108088210009,-0.03310733450498127,0.7354361396995995,0.1749090999364853,-0.9810012578964233,-0.08392482250928879,-9.197319030761719,-48.35888671875,12.78057861328125,2
1596230016.59543,12,0,102348.7797517917,-1.092678771583974,1.169745047495818,1.376294957821177,0.3404104113578796,-0.07830603420734406,0.1667786836624146,0.07096219062805176,-0.0212666392326355,-0.06117600202560425,2,0.6740247413060133,0.08924244200416434,-0.03501926907381936,0.7324616703660515,0.1779410392045975,-0.9811441898345947,-0.07545287162065506,-8.925552368164062,-48.28884124755859,13.02874755859375,2
1596230016.625643,13,0,102348.8098487917,-1.133257206440797,1.207029433258693,1.384067489068133,0.3057310283184052,0.0738503485918045,-0.04015682637691498,-0.1521343290805817,0.04440426826477051,0.03684073686599731,2,0.677837116107066,0.08666493250747995,-0.03473905488471729,0.7292593311463839,0.1734972596168518,-0.9826167821884155,-0.06605206429958344,-9.203514099121094,-48.28513336181641,13.56448364257812,2
1596230016.655698,14,0,102348.8399467917,-1.189206236517068,1.274970512343824,1.382545599492046,0.3815979361534119,0.6612762212753296,-0.1364450752735138,0.02960942685604095,0.07257425785064697,0.1135547757148743,2,0.6812475740614696,0.0928612760943624,-0.03250371611934433,0.7254115896767341,0.1790114492177963,-0.9823331236839294,-0.05455705150961876,-9.013877868652344,-48.12990570068359,13.959228515625,2
1596230016.685842,15,0,102348.8700437917,-1.234674448111373,1.33682065382693,1.387619454645873,0.1833508461713791,0.3632968366146088,0.3250993192195892,0.246923565864563,-0.055733323097229,-0.05054759979248047,2,0.685038768852454,0.09800985642968468,-0.02611558063992764,0.7214111000081025,0.1771911680698395,-0.983269989490509,-0.04223190620541573,-9.150154113769531,-48.08397674560547,14.26898193359375,2
1596230016.715769,16,0,102348.9001417917,-1.257526840506338,1.360425635655047,1.399727062468699,0.3058179020881653,-0.258029967546463,0.2823518216609955,0.09932860732078552,-0.03878569602966309,-0.1305776238441467,2,0.6879534114051692,0.09458091824481435,-0.02211846178128035,0.7192254993697677,0.1664829552173615,-0.985403299331665,-0.0355491079390049,-9.712226867675781,-47.87395477294922,14.64105224609375,2
1596230016.746018,17,0,102348.9302397917,-1.313005860699559,1.407805242546118,1.406816928668591,0.3000366985797882,-0.1930209398269653,0.1566815227270126,-0.05661943554878235,0.06920892000198364,-0.01132583618164062,2,0.6918458417529596,0.09002477560147529,-0.0232416749875447,0.7160338844082899,0.1610808968544006,-0.9865854978561401,-0.0264897421002388,-10.03936004638672,-47.68992614746094,14.97412109375,2
1596230016.77609,18,0,102348.9603367917,-1.371318370531846,1.463414467420022,1.413223507590925,0.3631075024604797,0.11528679728508,0.102060541510582,-0.1237386167049408,-0.0003389120101928711,0.02283310890197754,2,0.6956607289923725,0.08744747509845088,-0.02255065254355176,0.7126714381295455,0.1560178399085999,-0.9876110553741455,-0.01681817881762981,-10.01580810546875,-47.48774719238281,15.582763671875,2
1596230016.806292,19,0,102348.9904347917,-1.421321407159855,1.515915578141437,1.413516079410951,0.1662105768918991,0.1549922376871109,-0.1034284010529518,-0.1437456905841827,-0.03433477878570557,0.1349642276763916,2,0.6984670384494051,0.08858831793117852,-0.02193171821863654,0.7097992254007277,0.1563969999551773,-0.9876569509506226,-0.00859181210398674,-10.24691009521484,-47.13303375244141,16.01409912109375,2
1596230016.836258,20,0,102349.0205317917,-1.453195095781106,1.553414035995569,1.410700079769204,0.2320298105478287,0.1834227591753006,-0.09270569682121277,-0.05830726027488708,0.04806947708129883,0.02422177791595459,2,0.7001445848959029,0.09171777420316496,-0.02110876049472982,0.7077709828352259,0.1593887209892273,-0.9872119426727295,-0.002770820166915655,-10.27993774414062,-47.14306640625,16.22451782226562,2
1596230016.866644,21,0,102349.0506297917,-1.48844860528151,1.58706280515827,1.407727864845177,0.1382767111063004,-0.3149695694446564,-0.1327742487192154,-0.04622253775596619,0.008629322052001953,-0.1506201028823853,2,0.7019987585416227,0.09229348166423654,-0.0228225207036426,0.7058036089290884,0.1623249053955078,-0.9867337942123413,0.002640687394887209,-10.01823425292969,-47.25091552734375,16.51492309570312,2
1596230016.896498,22,0,102349.080727125,-1.541876316211189,1.632058815248489,1.398613685260942,0.4253462255001068,-0.1157893911004066,-0.4468607306480408,-0.0510895848274231,0.04338926076889038,0.1073552370071411,2,0.7047550693061484,0.09254814825772345,-0.02903719000875038,0.7027887237926508,0.1710118055343628,-0.9852131605148315,0.01048973482102156,-9.716880798339844,-47.15098571777344,16.5904541015625,2
1596230016.926596,23,0,102349.110824125,-1.584370604272407,1.67357402182881,1.386684389772001,0.1195527091622353,0.02397315576672554,-0.159527525305748,0.07230900228023529,0.06035083532333374,0.09922528266906738,2,0.7071919377159535,0.09628577106617095,-0.03349732710730041,0.699633153518491,0.1821075081825256,-0.9830992221832275,0.01878277212381363,-9.249153137207031,-46.95722961425781,17.24456787109375,2
1596230016.956679,24,0,102349.140922125,-1.61294332620505,1.704104820423148,1.389638337857121,0.1727176755666733,0.1537587195634842,0.2535682022571564,-0.0170627236366272,-0.0673859715461731,0.04200482368469238,2,0.7090806110500342,0.09580274506869971,-0.03162831635268504,0.6978726131881388,0.1785702705383301,-0.9836357235908508,0.02394695766270161,-9.176643371582031,-46.7548828125,17.371826171875,2
1596230016.986804,25,0,102349.171019125,-1.625791256340907,1.713695282674197,1.388569520395317,0.06444894522428513,-0.5026754140853882,-0.3804810047149658,-0.1334464251995087,0.04049640893936157,-0.2894103527069092,2,0.7098493358965741,0.09496308624527944,-0.03308330511224444,0.6971380581102605,0.1793730854988098,-0.9834426045417786,0.02580813504755497,-9.245841979980469,-46.74395751953125,17.66876220703125,2
1596230017.016786,26,0,102349.201117125,-1.654712022669536,1.730301274089265,1.375918169013457,0.1960223913192749,-0.1238624602556229,-0.1883233338594437,0.007486522197723389,0.02373450994491577,0.192406177520752,2,0.7116020038525973,0.09487395341183757,-0.04169047359959555,0.6948982338144228,0.1911895275115967,-0.9810712933540344,0.03075695782899857,-8.663551330566406,-46.62870025634766,17.85452270507812,2
1596230017.047012,27,0,102349.231215125,-1.678360802132215,1.753038548120282,1.374744455875635,0.2168321907520294,-7.211649790406227e-05,0.03726477921009064,0.04272753000259399,0.03070557117462158,0.1104661226272583,2,0.7132144962922748,0.09474837721320986,-0.04220894613192358,0.693228876384905,0.1915726810693741,-0.9808433055877686,0.03530434519052505,-8.305191040039062,-46.71896362304688,18.28604125976562,2
1596230017.077003,28,0,102349.261312125,-1.694129867414137,1.7664808549822,1.372534593149989,-0.04931596294045448,-0.09456548094749451,-0.1445092111825943,-0.07614576816558838,-0.02315413951873779,0.09177708625793457,2,0.7142902958452166,0.09454165131028067,-0.0436440504558841,0.6920595198912951,0.193205937743187,-0.9804104566574097,0.03829750046133995,-8.319900512695312,-46.75408935546875,18.44073486328125,2
1596230017.107202,29,0,102349.291410125,-1.688308255221629,1.759298876700998,1.366563432635447,0.07466205954551697,-0.03123646974563599,-0.2451180815696716,-0.05781501531600952,0.02121448516845703,-0.08405923843383789,2,0.7139661880141646,0.09620274286927655,-0.04627677525355098,0.6919940859987139,0.1992235630750656,-0.9792168736457825,0.03800537064671516,-7.904289245605469,-46.55054473876953,18.51309204101562,2
1596230017.137139,30,0,102349.321508125,-1.689669545987479,1.759262058914412,1.359120933313773,0.03754312172532082,-0.120272621512413,-0.2214456349611282,0.04160873591899872,-0.014323890209198,-0.0489509105682373,2,0.7141582831405142,0.09828062428605389,-0.04935651815345368,0.6912906368482551,0.2063776850700378,-0.9776802659034729,0.03936227038502693,-7.83673095703125,-46.5782470703125,18.53591918945312,2
1596230017.167391,31,0,102349.351605125,-1.68575887854814,1.74784582410555,1.354306908649132,-0.08582735061645508,-0.2807073295116425,-0.11398696154356,0.008839890360832214,0.01552343368530273,0.05843460559844971,2,0.7137435621615942,0.09739753890410269,-0.05375939411286226,0.6915155980652634,0.2114446759223938,-0.9766575694084167,0.03783230483531952,-7.175346374511719,-46.60411071777344,18.3935546875,2
1596230017.19745,32,0,102349.381703125,-1.665278511303081,1.719793741995094,1.350156524498758,-0.03557440638542175,-0.1332845389842987,-0.2536694407463074,-0.0641588419675827,-0.005514681339263916,0.08573150634765625,2,0.7120011864392037,0.09642805809211621,-0.05811905111778912,0.69309311491227,0.2164289057254791,-0.9757575988769531,0.03248811885714531,-7.099349975585938,-46.67103576660156,18.53384399414062,2
1596230017.22763,33,0,102349.411800125,-1.655056569227718,1.710335758499019,1.341995992169754,-0.08269865810871124,0.1464056521654129,-0.2639492154121399,-0.1101187765598297,0.01743769645690918,0.08421432971954346,2,0.7112297770786215,0.09962597685275473,-0.06079813321470809,0.6932030755989294,0.2246049493551254,-0.9739391803741455,0.03154626116156578,-6.441085815429688,-46.88367462158203,18.38168334960938,2
1596230017.257524,34,0,102349.441898125,-1.635477737595587,1.700045627394695,1.334342746132198,-0.1055361926555634,0.2926186323165894,-0.3145501315593719,-0.03929175436496735,0.02074581384658813,0.0798027515411377,2,0.7098794892421428,0.1056776677959048,-0.06034785753437699,0.6937302137807607,0.2323029935359955,-0.9721748828887939,0.03019331768155098,-6.219367980957031,-46.94355773925781,18.17105102539062,2
1596230017.287974,35,0,102349.471996125,-1.606606322321872,1.675140174707186,1.325657904793156,-0.3157348930835724,-0.08121992647647858,-0.2530019283294678,0.06235812604427338,-0.01220667362213135,-0.0159991979598999,2,0.7074432978275138,0.1102845105758004,-0.06219673122744696,0.6953365843548061,0.2413710355758667,-0.9701037406921387,0.0252773854881525,-5.883613586425781,-46.90274810791016,18.16226196289062,2
1596230017.317806,36,0,102349.502093125,-1.565173220613844,1.631478625561169,1.321014068283225,-0.2842762768268585,-0.1146272718906403,-0.1769220381975174,-0.03207084536552429,0.002265334129333496,0.06666088104248047,2,0.7036382985314065,0.1113044442834527,-0.06479313790269436,0.698789278039268,0.2467385679483414,-0.9689662456512451,0.01499106921255589,-5.558441162109375,-47.29034423828125,17.66372680664062,2
1596230017.350954,37,0,102349.532191125,-1.521737811235456,1.588020582446517,1.313286783946236,-0.4727217853069305,0.06564922630786896,-0.3670445084571838,-0.09279322624206543,0.03644824028015137,0.1958926916122437,2,0.6994235587341529,0.1140169127234709,-0.06754437907813782,0.7023137979098233,0.2546355724334717,-0.9670272469520569,0.004386341664940119,-5.118911743164062,-47.28176116943359,17.29336547851562,2
1596230017.378216,38,0,102349.562288125,-1.454108063552726,1.521350972692373,1.301875498217606,-0.6603962779045105,-0.1415663957595825,-0.365720272064209,-0.1053315401077271,-0.05643492937088013,0.04540300369262695,2,0.6924633150642311,0.1180196588292281,-0.07090979488466734,0.708193244543152,0.2653663158416748,-0.9640581607818604,-0.01313183456659317,-4.596473693847656,-47.63271331787109,16.28884887695312,2
1596230017.410769,39,0,102349.592386125,-1.380784297253707,1.453040206265889,1.286461587594943,-0.7959782481193542,0.2922317385673523,-0.5625622272491455,-0.06653404235839844,0.03156840801239014,0.3434945940971375,2,0.6841594357629995,0.1242883768277281,-0.07372219713883238,0.7148729204188838,0.2785762548446655,-0.9598484635353088,-0.03295653313398361,-4.278762817382812,-47.86500549316406,15.87744140625,2
1596230017.438209,40,0,102349.622483125,-1.296193431115844,1.375758846556958,1.266596868170516,-0.9710604548454285,-0.03141245990991592,-0.3960720598697662,0.02029633522033691,-0.04374384880065918,0.1147293448448181,2,0.6734630332908601,0.1319948415744086,-0.07639779434170058,0.7233175581814948,0.2938505411148071,-0.9540870189666748,-0.05804980918765068,-3.472930908203125,-48.41596221923828,14.30392456054688,2
1596230017.487334,41,0,102349.652581125,-1.199469766171739,1.279505223664221,1.247570835552377,-1.216200351715088,-0.3788297176361084,-0.5113769173622131,-0.05891966819763184,-0.04938894510269165,0.05810445547103882,2,0.6603229877230345,0.1355137932476069,-0.07967256316273302,0.7343446547142641,0.3042469024658203,-0.9482158422470093,-0.09121912717819214,-3.107620239257812,-48.47177124023438,13.1478271484375,2
1596230017.498386,42,0,102349.682679125,-1.129199790175829,1.195641534799493,1.217098971412711,-0.9612086415290833,-0.6619547009468079,-0.7263628244400024,0.09593218564987183,0.07846474647521973,-0.2656588554382324,2,0.6462923522255326,0.137290304194395,-0.09105016879618294,0.7450955340080859,0.3222788274288177,-0.9380984902381897,-0.1269151419401169,-1.61041259765625,-49.05811309814453,11.196533203125,2
1596230017.530618,43,0,102349.712776125,-1.067597296330324,1.113886280060611,1.19062496567007,-0.987240195274353,-0.85240638256073,-0.4008590579032898,-0.1031802296638489,-0.01912730932235718,0.09588223695755005,2,0.6324829112981133,0.1345711823464367,-0.1024323530392807,0.7558859925152828,0.3330143690109253,-0.928601086139679,-0.1637119203805923,-0.9057235717773438,-49.35759735107422,10.234375,2
1596230017.558503,44,0,102349.742874125,-1.014278119006519,1.042464401238819,1.16145367275912,-1.259603023529053,-0.5681864619255066,-0.638460099697113,-0.2519725263118744,0.04036557674407959,0.2122023105621338,2,0.6180907603196825,0.1328441470404412,-0.1133300806804953,0.7664676334905356,0.3437380194664001,-0.9173826575279236,-0.2006324827671051,0.2787017822265625,-49.75662231445312,8.137115478515625,2
1596230017.59106,45,0,102349.772971125,-0.9666078638073868,1.008462195319918,1.129805876242255,-0.798581063747406,1.066439390182495,-0.3720125257968903,0.171783983707428,0.1776036024093628,0.2545804977416992,2,0.6046609214866164,0.1435231049319328,-0.1146462606007697,0.7750113235443009,0.3611083030700684,-0.9043293595314026,-0.227572575211525,0.9419097900390625,-49.96158599853516,6.883453369140625,2
1596230017.618782,46,0,102349.803069125,-0.9175143050504627,0.9899519052071273,1.113437117111339,-1.123860001564026,0.4076792299747467,0.2318922430276871,0.362216055393219,-0.05607080459594727,-0.01942551136016846,2,0.5954929858781858,0.1556722418907027,-0.1057954992972351,0.781000459087156,0.3691611289978027,-0.8972217440605164,-0.2423085123300552,1.23291015625,-49.85854339599609,5.322662353515625,2
1596230017.650912,47,0,102349.833167125,-0.8445499274337281,0.9252647127211694,1.102753772895675,-0.9512401819229126,-0.2853109240531921,0.250372976064682,0.1371096074581146,-0.04637718200683594,-0.1343657970428467,2,0.5834188681907861,0.1546421597401202,-0.09913899577696822,0.7911256108019172,0.3603618741035461,-0.8924530744552612,-0.2714164555072784,0.9239730834960938,-49.89579772949219,4.354156494140625,2
1596230017.679051,48,0,102349.863264125,-0.7944308508101376,0.8752796691248734,1.088778041504868,-0.9284150004386902,0.1699284911155701,0.1553739607334137,-0.155693382024765,0.08482486009597778,-0.09731292724609375,2,0.572813059560853,0.152846029638998,-0.09734472718620257,0.7994044562591475,0.3558922708034515,-0.8860611319541931,-0.297046571969986,0.694488525390625,-50.17716217041016,2.474700927734375,2
1596230017.710655,49,0,102349.893362125,-0.7610089587564435,0.8888229795898461,1.086105318004668,0.1045384928584099,1.985252141952515,0.2843913733959198,-0.1172114014625549,0.3776944279670715,-0.2759605646133423,2,0.5698862337874196,0.1684757185163213,-0.0807983388558598,0.8001983759852951,0.3617197275161743,-0.884818971157074,-0.2936912178993225,0.0316619873046875,-50.07314300537109,1.8109130859375,2
1596230017.739142,50,0,102349.923459125,-0.7543394045525323,0.9200522113914148,1.089796580743958,0.0001505399122834206,0.6831576824188232,0.03198331594467163,-0.1080804765224457,-0.04363322257995605,-0.4449554085731506,2,0.571631248475267,0.1819373902469717,-0.0682633689562786,0.7971678757087836,0.3681122362613678,-0.8865328431129456,-0.2802729904651642,-0.3474197387695312,-50.24936676025391,1.3912353515625,2
1596230017.770538,51,0,102349.953557125,-0.7724707457745792,0.9347227056182632,1.088023652036956,0.0919252410531044,-0.5205704569816589,-0.6265244483947754,-0.1369866132736206,-0.1157247424125671,-0.2308389544487,2,0.5732461735477791,0.1830322778495341,-0.0717512849604473,0.7954494908158567,0.3734481632709503,-0.885711133480072,-0.2757760286331177,0.09204864501953125,-50.24404144287109,1.670440673828125,2
1596230017.799302,52,0,102349.983654125,-0.7991609297647909,0.9431397719457077,1.069994430996169,0.1472229510545731,-0.403257429599762,-0.4369629621505737,0.2294282913208008,-0.1175013184547424,-0.06043756008148193,2,0.5704503765053018,0.1833263894342192,-0.08477822845332128,0.7961095661481432,0.3886193335056305,-0.877197802066803,-0.2819555997848511,0.8558273315429688,-50.20529174804688,1.73553466796875,2
1596230017.83042,53,0,102350.013752125,-0.8100969037828938,0.9415268846754822,1.074065871181675,0.1585281938314438,-0.2314812839031219,0.1612406373023987,0.08880653977394104,0.1119961738586426,-0.06481903791427612,2,0.5726199297589609,0.1785147244270524,-0.08849618560419847,0.7952404977345486,0.3852736353874207,-0.8791453838348389,-0.2804778218269348,1.07086181640625,-50.21994018554688,1.96539306640625,2
1596230017.859597,54,0,102350.043850125,-0.8183888843516165,0.9470558166929338,1.076645481682979,0.2310889214277267,0.0689534991979599,-0.1194405928254128,-0.03090262413024902,0.1300240159034729,0.09215080738067627,2,0.5743913907318589,0.1776671719633674,-0.08950969114418733,0.794038394443103,0.3849762976169586,-0.8803717494010925,-0.2770178020000458,1.295455932617188,-50.05127716064453,2.217926025390625,2
1596230017.890445,55,0,102350.073948,-0.8268230688188272,0.9513587088042191,1.0765376666149,-0.08472620695829391,-0.227950394153595,-0.02663407847285271,-0.1202439069747925,-0.03909504413604736,0.1216226816177368,2,0.5753013551178269,0.176978565365027,-0.09164912549964449,0.7932890138794791,0.3862420320510864,-0.8803206086158752,-0.2754138708114624,1.545433044433594,-50.03868865966797,2.30535888671875,2
1596230017.919748,56,0,102350.104046,-0.8280954581966903,0.9517611099932637,1.074226365585677,0.07229958474636078,0.1727822422981262,-0.1872310489416122,-0.2141213417053223,0.04011368751525879,0.160929799079895,2,0.5747337428834094,0.177375297171989,-0.09266594895814634,0.7934936448186563,0.3880088329315186,-0.8792218565940857,-0.2764382660388947,1.367835998535156,-50.30817413330078,2.2576904296875,2
1596230017.950991,57,0,102350.134143,-0.8447561753143324,0.9757962511485633,1.067735566695644,0.06216517090797424,0.3930867612361908,-0.4014242589473724,0.001177966594696045,-0.03918051719665527,-0.02992033958435059,2,0.575412206706129,0.1838137606315459,-0.09413437672071523,0.7913608921428089,0.3992581963539124,-0.8761110305786133,-0.2702265977859497,2.036575317382812,-50.28245544433594,2.5201416015625,2
1596230017.980103,58,0,102350.164241,-0.8523940218157164,0.9928916679283218,1.060445124556034,-0.1593351066112518,0.2378074675798416,-0.0990377813577652,0.2122748494148254,-0.004695236682891846,0.07205915451049805,2,0.5747685141626712,0.1903133083390426,-0.09426246306284852,0.7902762459096582,0.4091583788394928,-0.8725730180740356,-0.2668440043926239,2.247512817382812,-50.27281951904297,2.68780517578125,2
1596230018.010637,59,0,102350.194339,-0.845392448052077,0.9899578009268374,1.059816056824364,-0.02415099740028381,-0.04962784796953201,0.1664547026157379,0.1868022680282593,0.03812968730926514,-0.04057115316390991,2,0.5737770387063148,0.1913312206040035,-0.0925124043476232,0.7909575533384416,0.4088327288627625,-0.8722655177116394,-0.2683445513248444,2.237075805664062,-50.33290100097656,2.330230712890625,2
1596230018.040228,60,0,102350.224436,-0.8346052319222093,0.9795533704050746,1.062174847650588,-0.2495971024036407,-0.0676610991358757,0.07986173778772354,-0.08612507581710815,-0.1152293086051941,0.08914864063262939,2,0.5729768486936841,0.1896827776678154,-0.09057230049405096,0.7921582292954776,0.4043092131614685,-0.8734166622161865,-0.27143594622612,2.125106811523438,-50.14604949951172,2.296905517578125,2
1596230018.071581,61,0,102350.254534,-0.8231764609852753,0.969005664829513,1.055175090160309,-0.2339349985122681,0.1545795798301697,-0.2175944298505783,-0.1877396404743195,0.03514891862869263,-0.004805028438568115,2,0.5693012418904916,0.1905946627423237,-0.0909741240859207,0.7945397551569144,0.4064534306526184,-0.8699865937232971,-0.2791395485401154,2.230247497558594,-50.2315673828125,2.038848876953125,2
1596230018.10171,62,0,102350.284631,-0.8222272296628733,0.9737459798505336,1.048198631989568,-0.06802159547805786,0.1389466226100922,-0.1247915998101234,-0.06903097033500671,0.08893781900405884,-0.08717143535614014,2,0.5673068953455509,0.194564150517817,-0.09116004865110877,0.7949828147714226,0.4127817749977112,-0.8665255308151245,-0.280615359544754,2.277206420898438,-50.19586944580078,1.87353515625,2
1596230018.145153,63,0,102350.314729,-0.8246514764057655,0.9747783669417629,1.04198041333822,-0.09866540133953094,-0.1552843153476715,-0.3205482959747314,-0.1178568601608276,-0.03826332092285156,-0.02314227819442749,2,0.5657000787177328,0.195906366623521,-0.09353601556591656,0.7955219528194973,0.4175222814083099,-0.8634050488471985,-0.2832082211971283,2.458137512207031,-50.34494018554688,1.6324462890625,2
1596230018.160584,64,0,102350.344826,-0.832977978520424,0.9807598772148906,1.030335754817931,-0.0895279198884964,0.1262440383434296,-0.4086280763149261,0.003542333841323853,0.00383460521697998,0.03140866756439209,2,0.5632665140715795,0.1989736972512263,-0.09836000934936706,0.795905562300637,0.4275343418121338,-0.857471764087677,-0.2862806022167206,2.771286010742188,-50.19390869140625,1.360809326171875,2
1596230018.203277,65,0,102350.374924,-0.839292845114188,0.9953823215452753,1.023375176006371,-0.004184732213616371,0.294941246509552,-0.0230853371322155,0.2387892305850983,-0.02174299955368042,-0.04155826568603516,2,0.5625142350496667,0.2048362186010163,-0.09868077817805226,0.7949100275621664,0.4366714060306549,-0.853869616985321,-0.2832397222518921,3.449752807617188,-50.05371856689453,1.328094482421875,2
1596230018.221002,66,0,102350.405021,-0.8325651310117377,0.9915643579605234,1.026020880645439,-0.09869056195020676,-0.1056093275547028,0.1701242625713348,0.1118771433830261,-0.09878021478652954,-0.04638963937759399,2,0.5624405238019203,0.2045165567862688,-0.09634628184353833,0.795330762792787,0.4336947202682495,-0.8552436828613281,-0.283667266368866,3.457901000976562,-50.06723785400391,1.4188232421875,2
1596230018.267676,67,0,102350.435119,-0.8276248766528718,0.9832033605725707,1.026455940916402,0.03255470842123032,-0.110112152993679,-0.0102002490311861,0.03358587622642517,0.113316535949707,-0.1342271566390991,2,0.561666847764106,0.2024642519830787,-0.09661000073459591,0.7963699542236684,0.4309981763362885,-0.8554690480232239,-0.2870771586894989,3.1827392578125,-50.12798309326172,1.40185546875,2
1596230018.280984,68,0,102350.465217,-0.8334681766558252,0.9865576950157262,1.031770530968902,0.2795576751232147,-0.126603290438652,0.2299684286117554,0.09214118123054504,0.08392775058746338,-0.1335090398788452,2,0.5640334668332335,0.2007663534877042,-0.09652536488664654,0.795136540203939,0.4281603991985321,-0.8582091331481934,-0.2831182479858398,3.099632263183594,-50.07032012939453,1.298187255859375,2
1596230018.326455,69,0,102350.495314,-0.8385354296433779,0.980560472196262,1.041542213321577,0.201795756816864,-0.5631275773048401,0.1005392447113991,-0.06987076997756958,-0.1132551431655884,0.007929205894470215,2,0.5671982024433779,0.1943868936489514,-0.09753731865682019,0.7943465351910317,0.4194670915603638,-0.8631839156150818,-0.2809998691082001,2.884017944335938,-50.26111602783203,1.52081298828125,2
1596230018.341108,70,0,102350.525412,-0.8496850166668999,0.9722728133995702,1.043355025973873,0.1836910843849182,-0.4345385432243347,-0.1383990049362183,-0.1177600026130676,0.003714144229888916,0.04483520984649658,2,0.5683918724527324,0.1874523730859277,-0.103819010601099,0.7943639204381648,0.4158305823802948,-0.8640977740287781,-0.2835845649242401,2.84039306640625,-49.96544647216797,1.97259521484375,2
1596230018.384069,71,0,102350.555509,-0.8625829744358474,0.9760744991048204,1.045196304875641,0.2654808461666107,-0.1624806970357895,0.05993686243891716,0.06867453455924988,0.07699370384216309,-0.04696738719940186,2,0.5703452619189178,0.1848010370179781,-0.1073472953562656,0.7931150572236388,0.4155870079994202,-0.8650230765342712,-0.2811097204685211,2.9678955078125,-49.90320587158203,1.87109375,2
1596230018.401286,72,0,102350.585607,-0.868815926587013,0.9764064278303981,1.053220259425607,0.1351113021373749,-0.1832186877727509,0.1632418036460876,0.01916956901550293,-0.08957880735397339,0.1100624203681946,2,0.5733219029496609,0.181008528467359,-0.1074993596746484,0.7918218632550926,0.409916490316391,-0.8690210580825806,-0.2770758271217346,2.852882385253906,-49.95976257324219,2.53076171875,2
1596230018.447097,73,0,102350.615704,-0.8708991358351058,0.9705288795571932,1.056549612015713,0.1115018874406815,-0.304738849401474,0.04412536323070526,0.02164691686630249,0.024222731590271,0.01796096563339233,2,0.5741781417864451,0.1771927338815484,-0.1090880110285024,0.7918471935845124,0.4058910310268402,-0.8706635236740112,-0.2778443992137909,2.799293518066406,-49.97535705566406,2.6461181640625,2
1596230018.46157,74,0,102350.645802,-0.8728377215460097,0.9671902539458235,1.063295889926156,0.1620968133211136,-0.04265805333852768,0.3008078932762146,0.1109038293361664,0.1006705164909363,0.003069221973419189,2,0.5761654127157313,0.1735065881446093,-0.1089496707973259,0.7912389055708398,0.4001163840293884,-0.8739619851112366,-0.2758577764034271,2.536758422851562,-50.00226593017578,2.801910400390625,2
1596230018.50381,75,0,102350.675899,-0.8681604307505896,0.9614555788231971,1.074602685038043,0.1124288067221642,-0.05005933344364166,0.3603121936321259,0.02549093961715698,-0.06834733486175537,0.05721193552017212,2,0.57880199978292,0.1695610486025866,-0.1056345113260031,0.7906192988589544,0.3903993964195251,-0.8794010877609253,-0.2724745869636536,2.094268798828125,-49.94315338134766,2.8662109375,2
1596230018.521977,76,0,102350.705997,-0.858467775631643,0.9526963292576359,1.083095915817174,0.01621472090482712,-0.02312350086867809,0.2962594926357269,0.02061939239501953,-0.01752841472625732,0.04812169075012207,2,0.5800502212285231,0.1666405230284445,-0.1020059862782169,0.7908017263701059,0.3818964064121246,-0.883412778377533,-0.2715453505516052,1.721359252929688,-50.05867767333984,3.2393798828125,2
1596230018.568496,77,0,102350.736094,-0.8481993354387561,0.941262690897508,1.093618535272428,0.1101207882165909,-0.09078828245401382,0.4733223617076874,0.0890900194644928,0.110771119594574,-0.1299588084220886,2,0.5817658482823652,0.1623132683699245,-0.09839472681247546,0.7908990944343205,0.3712322115898132,-0.8882946372032166,-0.2704057991504669,1.226882934570312,-50.12905883789062,3.112518310546875,2
1596230018.582076,78,0,102350.766192,-0.8358979328339534,0.9279866764557059,1.107308997244247,0.1245387122035027,-0.05084063857793808,0.4223616421222687,-0.1267243623733521,0.05912101268768311,-0.05755776166915894,2,0.5842415913421223,0.157049060923607,-0.09369560814543926,0.7907075488082476,0.3578414916992188,-0.894498884677887,-0.2679947018623352,0.446044921875,-50.28745269775391,3.441314697265625,2
1596230018.628772,79,0,102350.79629,-0.8351332801995578,0.9316488528507142,1.119271069328746,0.3622813820838928,0.4183884263038635,0.2093584835529327,-0.265059769153595,0.0842815637588501,-0.1846684813499451,2,0.5879230847571805,0.1555827781868654,-0.08909363167578116,0.7887983260852849,0.3502072691917419,-0.8997825980186462,-0.2602808773517609,-0.04764556884765625,-49.98059844970703,3.485626220703125,2
1596230018.642142,80,0,102350.826387,-0.8509369622183254,0.958674157248619,1.127173978765607,0.3643926680088043,0.383942574262619,-0.02710713073611259,-0.1004079878330231,0.07818067073822021,-0.04695391654968262,2,0.5926707542415938,0.1594582894638366,-0.08517893957564543,0.78489431034,0.3512819409370422,-0.9032028317451477,-0.2466288655996323,-0.4857254028320312,-50.35767364501953,3.80908203125,2
1596230018.684189,81,0,102350.856485,-0.8765337329782991,0.9863309145620014,1.135729441356629,0.4446018040180206,-0.08632311224937439,0.1651682257652283,0.1574633717536926,-0.1588999629020691,-0.05524230003356934,2,0.598342388892567,0.1603503659496684,-0.08457983932406871,0.7804617287396537,0.3515100479125977,-0.9068418741226196,-0.2325482964515686,-0.528900146484375,-50.18927001953125,4.861053466796875,2
1596230018.702638,82,0,102350.886582,-0.8842206028928595,0.9945911075532758,1.148823904740409,0.2895142138004303,0.03927956521511078,0.4457023441791534,0.3978433310985565,0.0210680365562439,0.0008584856986999512,2,0.6029639033624135,0.1576728941582402,-0.08139853640594974,0.7777841835649116,0.3434317111968994,-0.9122828841209412,-0.2231475859880447,-0.8808212280273438,-50.03472137451172,5.217041015625,2
1596230018.747244,83,0,102350.91668,-0.882657604820889,0.9867749220847121,1.174577826892178,0.5608223676681519,-0.3506067097187042,1.048703670501709,0.2929202318191528,0.1647204160690308,-0.05908530950546265,2,0.6096634525411665,0.1480272464091749,-0.07587780300159341,0.775010336504232,0.3219651281833649,-0.922527015209198,-0.2127968221902847,-2.080978393554688,-49.94676208496094,6.229736328125,2
1596230018.762665,84,0,102350.946777,-0.8677152663742591,0.9584233288140649,1.210637725207673,0.4514172375202179,-0.6028708815574646,0.920940101146698,-0.1846423745155334,-0.07708156108856201,0.2005918025970459,2,0.6175345147214074,0.1317681421058261,-0.06868668156649238,0.772379802868074,0.288382887840271,-0.9358409643173218,-0.2025765627622604,-2.804283142089844,-49.99150085449219,6.507781982421875,2
1596230018.806622,85,0,102350.976875,-0.8633957068390188,0.941443051836387,1.227918685284852,0.1453724503517151,-0.110842227935791,0.1069876551628113,-0.2653714120388031,-0.1181092262268066,0.1813348531723022,2,0.6214528040689778,0.1218583763870607,-0.06749340391565428,0.7709679432829204,0.2717857360839844,-0.9417911171913147,-0.1978939026594162,-3.987716674804688,-49.69659423828125,7.4111328125,2
1596230018.822908,86,0,102351.006972,-0.8694536074184228,0.9483809395367265,1.234981481700952,0.3251805901527405,0.000389742199331522,0.4491245746612549,0.06155753135681152,0.1735039949417114,0.003120839595794678,2,0.6239914468685291,0.1207236792560925,-0.06571279577236161,0.7692479488007303,0.267741322517395,-0.9441421031951904,-0.1921209394931793,-4.09320068359375,-49.69636535644531,7.66632080078125,2
1596230018.868629,87,0,102351.03707,-0.8685285792421039,0.9331041919161336,1.261362428900619,0.6269732117652893,-0.9446025490760803,0.6708102226257324,-0.09224888682365417,0.07025563716888428,-0.3510072231292725,2,0.6306320011036406,0.1079652032300484,-0.06285661734210629,0.7659607860493293,0.2446730136871338,-0.9525061249732971,-0.1812935918569565,-5.181831359863281,-49.63650512695312,8.3658447265625,2
1596230018.887138,88,0,102351.067165625,-0.8911999913711557,0.9291406956428526,1.275015325616746,0.2217868864536285,-0.5991490483283997,-0.132436990737915,-0.1935784071683884,-0.0979534387588501,-0.07195079326629639,2,0.6353277682279495,0.09553907596053976,-0.06900539824109714,0.7631967740408135,0.2335123270750046,-0.9565747976303101,-0.1744618266820908,-5.470603942871094,-49.62944793701172,8.816436767578125,2
1596230018.929721,89,0,102351.097263625,-0.9231084776546354,0.9482524213583999,1.277724630240942,0.429760605096817,-0.1927828937768936,0.03526413440704346,-0.1781930029392242,0.06235891580581665,0.1606854796409607,2,0.6382203975027931,0.0919076476603331,-0.07431920491569005,0.7607262382739216,0.2346971780061722,-0.9573609828948975,-0.1684554219245911,-5.022941589355469,-49.46401214599609,9.519683837890625,2
1596230018.943155,90,0,102351.127360625,-0.9523770355774874,0.9770094578350864,1.289387029072416,0.4134450852870941,0.05195949971675873,0.2458519339561462,0.1418359279632568,0.06079435348510742,0.06985819339752197,2,0.6435741618480616,0.09012407407062603,-0.0728788940805935,0.7565571771621997,0.2301739752292633,-0.9606649875640869,-0.15537990629673,-5.288009643554688,-49.31222534179688,9.95086669921875,2
1596230018.984821,91,0,102351.157458625,-0.9676616185989698,0.9887609062377604,1.300752714038457,0.2646191716194153,-0.1550033837556839,0.1938843578100204,-0.1170820146799088,-0.1144604682922363,0.002907991409301758,2,0.6474703617309051,0.08634775060386471,-0.07156437029938129,0.7537936599476975,0.2228483855724335,-0.9637592434883118,-0.1466524004936218,-5.510391235351562,-49.21768951416016,10.5291748046875,2
1596230019.003188,92,0,102351.187555625,-0.9984536385360129,1.018352461275712,1.307671146409242,0.4755393862724304,0.3784719705581665,-0.1199760138988495,-0.3204260468482971,0.1142849922180176,-0.03517532348632812,2,0.6515001999475438,0.08544820068777004,-0.07149943525881575,0.7504225120474686,0.2214082926511765,-0.9655818343162537,-0.1364921927452087,-5.705001831054688,-49.09182739257812,10.83114624023438,2
1596230019.047033,93,0,102351.217653625,-1.059564453804294,1.098197729964712,1.311621325291287,0.4688456654548645,0.8513736128807068,-0.06245804205536842,-0.007736116647720337,0.0121084451675415,0.007836341857910156,2,0.6578887961583985,0.09408513494579041,-0.06699802381369518,0.7442053902171243,0.2281918227672577,-0.9666017293930054,-0.1166606396436691,-5.665229797363281,-48.89141845703125,11.9342041015625,2
1596230019.063517,94,0,102351.247751625,-1.092995950029005,1.153062108368048,1.317848879631834,0.3244260251522064,0.4685637950897217,0.139015793800354,0.006266236305236816,0.01778101921081543,0.042014479637146,2,0.6625265811598791,0.101463059913678,-0.05933544384805717,0.7397587834569324,0.2287389934062958,-0.9681789875030518,-0.1015275567770004,-6.056404113769531,-49.08888244628906,12.16253662109375,2
1596230019.107319,95,0,102351.277848625,-1.153555335458955,1.21802630653534,1.32526197262552,0.7170925736427307,0.04866084083914757,-0.04957056418061256,0.1331590116024017,0.1339530348777771,-0.3263073563575745,2,0.6688994937169913,0.1028712365454814,-0.05763432475125624,0.7339409083304246,0.2281059622764587,-0.970007598400116,-0.083981953561306,-6.240562438964844,-48.70881652832031,12.80227661132812,2
1596230019.123658,96,0,102351.307946625,-1.225057811677964,1.288350183455099,1.331029227855115,0.5104720592498779,0.07468520104885101,0.1217920631170273,0.1165975779294968,0.02958345413208008,0.05049353837966919,2,0.6755526911460804,0.1026430739193183,-0.05821724247438259,0.7278074057245238,0.2280664145946503,-0.9713932871818542,-0.06618592143058777,-6.083244323730469,-48.51128387451172,13.5284423828125,2
1596230019.164917,97,0,102351.338043625,-1.277070803088634,1.343996346997301,1.342072306149846,0.4211091697216034,0.1504539996385574,0.3287574946880341,0.04131205379962921,-0.01969873905181885,0.1076424121856689,2,0.6813302325432062,0.1014753288545573,-0.05446972288079316,0.7228588399215923,0.2209284156560898,-0.9739565253257751,-0.0509837418794632,-6.364288330078125,-48.12747955322266,14.45919799804688,2
1596230019.184225,98,0,102351.368141625,-1.319392927507606,1.391656482522569,1.352732740529761,0.3411311209201813,0.4039402306079865,0.2202494144439697,-0.04964978992938995,-0.02276772260665894,0.2132490873336792,2,0.6860128342387662,0.1005602296173662,-0.04977665517778679,0.7188854615884455,0.2128774225711823,-0.9763181805610657,-0.0385480634868145,-7.119682312011719,-47.98148345947266,15.09371948242188,2
1596230019.227208,99,0,102351.398238625,-1.350754717440694,1.4375642504015,1.357890564387595,0.1518059223890305,0.5273987054824829,0.03750420361757278,-0.1768922358751297,-0.07412523031234741,0.191658079624176,2,0.6892396588759845,0.1044711538447339,-0.04345419078018897,0.7156440128301359,0.2094290107488632,-0.9774210453033447,-0.02806894108653069,-7.484672546386719,-48.07972717285156,15.30215454101562,2
1596230019.244251,100,0,102351.428336625,-1.3630682490298,1.464464855847801,1.358485006720968,0.09098431468009949,0.5674728751182556,0.02416449412703514,-0.04143494367599487,0.06471985578536987,0.1733637452125549,2,0.6905061510847865,0.1096325577780725,-0.03836846957252749,0.7139395865990169,0.2095293700695038,-0.9775465130805969,-0.02236391603946686,-7.831916809082031,-47.91812896728516,15.5360107421875,2
1596230019.28439,101,0,102351.458433625,-1.378440112824994,1.492909970665985,1.360374814182059,0.06259278953075409,0.321835458278656,0.04517795518040657,-0.008648961782455444,-0.07553392648696899,-0.04143339395523071,2,0.6920419356571749,0.1138068917309492,-0.03335599949636542,0.7120487891211023,0.2082396149635315,-0.977942943572998,-0.01625190116465092,-8.034507751464844,-47.72986602783203,15.51803588867188,2
1596230019.304295,102,0,102351.488531625,-1.373236404664574,1.499915247546467,1.359938536222303,-0.06568711251020432,0.519648551940918,-0.04833493381738663,0.06249561905860901,-0.00734323263168335,0.09554624557495117,2,0.6918128930719983,0.1182516446347204,-0.02923309534141766,0.711728180447974,0.2087737172842026,-0.9778517484664917,-0.0148229394108057,-8.389801025390625,-47.88222503662109,15.28106689453125,2
1596230019.34648,103,0,102351.518628625,-1.375368823753847,1.515556898920501,1.36183437281964,0.01436879765242338,0.2538694441318512,0.254273921251297,0.1694945693016052,0.01913458108901978,-0.03178560733795166,2,0.6923053863901313,0.1224197837267777,-0.02391311743895574,0.7107424522462449,0.2071282416582108,-0.978246808052063,-0.0114532969892025,-8.567375183105469,-48.00170135498047,15.37811279296875,2
1596230019.364468,104,0,102351.548726625,-1.363824640930832,1.501801389755515,1.370089397025793,-0.03958044946193695,-0.1882094144821167,0.09800327569246292,-0.08846542239189148,-0.002082645893096924,-0.1114950776100159,2,0.6921316838245347,0.1186663761571483,-0.02166992643727045,0.7116195472625908,0.198887512087822,-0.9799258708953857,-0.01374404691159725,-8.97418212890625,-47.87140655517578,15.34262084960938,2
1596230019.408127,105,0,102351.578823625,-1.368886149170909,1.505544557607556,1.366507824718081,-0.006787329912185669,0.06846411526203156,-0.129029244184494,0.01758500933647156,0.02062487602233887,0.03817439079284668,2,0.6921769829487471,0.1194859167839781,-0.02343228030099204,0.7113825318901478,0.2024389654397964,-0.9792055487632751,-0.01322827953845263,-8.67718505859375,-47.83241271972656,15.1075439453125,2
1596230019.424635,106,0,102351.608921625,-1.354463437454235,1.493315619300375,1.371719135053217,-0.05558930337429047,0.1340070962905884,0.398411899805069,0.01688036322593689,-0.0192413330078125,0.03919851779937744,2,0.6916258525194333,0.1183209447439303,-0.02070208946560842,0.7121975503034375,0.1971719712018967,-0.9802494645118713,-0.01530766859650612,-8.791526794433594,-47.71607208251953,14.94091796875,2
1596230019.467618,107,0,102351.639018625,-1.350281727021673,1.487736210735678,1.379729913109112,-0.06040763854980469,-0.2744478285312653,0.08914152532815933,-0.03643329441547394,-0.001981556415557861,-0.1257224082946777,2,0.6920220213101886,0.1150119835668859,-0.01833633293404946,0.7124195767905188,0.1892518699169159,-0.9818022847175598,-0.01575553044676781,-9.099166870117188,-47.70391082763672,14.87167358398438,2
1596230019.486886,108,0,102351.669116625,-1.327148286612158,1.454632958532432,1.381579783988963,-0.1471726894378662,-0.4184194803237915,0.09476734697818756,-0.1912892758846283,0.03955602645874023,0.03909516334533691,2,0.6905622200899084,0.1105612150174839,-0.02087983792910608,0.7144677687085084,0.1868225038051605,-0.9821519255638123,-0.0218000765889883,-9.251426696777344,-47.74565887451172,15.04150390625,2
1596230019.528865,109,0,102351.699213625,-1.316802480388939,1.435841489419003,1.380961897454503,-0.03529755771160126,-0.04512443765997887,-0.1664490848779678,-0.2104321122169495,0.08490943908691406,0.1532661914825439,2,0.6897264882296247,0.1076252802712533,-0.02388034979456444,0.7156284169699479,0.1869812309741974,-0.9820355176925659,-0.02538834139704704,-9.25994873046875,-47.84913635253906,14.87872314453125,2
1596230019.545069,110,0,102351.729311625,-1.304498290772453,1.428020118316453,1.373397459808026,-0.2117998450994492,0.177014172077179,-0.1987519562244415,0.02579857409000397,-0.06907713413238525,0.03693646192550659,2,0.6881712893406587,0.111656692658831,-0.02479389936561532,0.7164762988368772,0.1941236406564713,-0.9805800318717957,-0.02790611982345581,-8.865501403808594,-48.03818511962891,14.77340698242188,2
1596230019.581761,111,0,102351.759408625,-1.269819647499006,1.395951202689445,1.370782900799555,-0.2352015823125839,-0.01266622263938189,0.009159069508314133,-0.01782001554965973,0.00710594654083252,0.01281321048736572,2,0.6855370922394622,0.1129510308592143,-0.02426699621307937,0.7188129468502855,0.1956531852483749,-0.9800639152526855,-0.03456192091107368,-8.767654418945312,-47.91812133789062,14.51373291015625,2
1596230019.605322,112,0,102351.789506625,-1.24503749229818,1.37058374452221,1.365992718714792,-0.1678167134523392,0.04549221321940422,-0.2573131024837494,0.00932370126247406,0.04680991172790527,0.06646114587783813,2,0.6832261441517069,0.1139234827875949,-0.02567192843278593,0.7208083472861758,0.1993134617805481,-0.9791009426116943,-0.04044695198535919,-8.813072204589844,-48.21225738525391,14.19869995117188,2
1596230019.647823,113,0,102351.819603625,-1.217431091016114,1.343463700581798,1.359050603439892,-0.2848225831985474,-0.1733994334936142,-0.003633486106991768,0.1738782823085785,-0.09948074817657471,-0.08363020420074463,2,0.6803594002086106,0.1158765579453407,-0.0273156943388822,0.72314427365051,0.2047599107027054,-0.9776654839515686,-0.04736742004752159,-8.252952575683594,-48.27415466308594,13.67755126953125,2
1596230019.665386,114,0,102351.849701625,-1.182277345286775,1.298498841971366,1.361447012830195,-0.08582203835248947,-0.3666887879371643,0.1406858116388321,0.02620489895343781,0.1251629590988159,0.02049994468688965,2,0.6780802381145099,0.1107275770282804,-0.02904237851080854,0.7260187501998498,0.200166717171669,-0.9781663417816162,-0.0558931902050972,-8.268569946289062,-48.300048828125,13.54229736328125,2
1596230019.705129,115,0,102351.879798625,-1.164406912015229,1.274844578242804,1.362088633454932,-0.2382021397352219,-0.06083753705024719,0.05302906408905983,0.05875875055789948,-0.06200325489044189,0.03704345226287842,2,0.6768510989879931,0.1079736229062732,-0.03034666045400047,0.7275254271581489,0.198187455534935,-0.9782994985580444,-0.06042857468128204,-8.513656616210938,-48.35303497314453,13.46575927734375,2
1596230019.72578,116,0,102351.909896625,-1.120953926414956,1.229718971769282,1.365007838640235,-0.1616519093513489,-0.09776884317398071,0.2422270625829697,-0.06365935504436493,0.008902430534362793,-0.115906298160553,2,0.674348013584262,0.1052554995721068,-0.0287914763082685,0.7303062161504804,0.1925684362649918,-0.9789001941680908,-0.06835207343101501,-8.411796569824219,-48.48281097412109,13.05206298828125,2
1596230019.768752,117,0,102351.939993625,-1.108950267935003,1.214191513189838,1.367523956459817,0.006660504266619682,-0.159694030880928,-0.0394749790430069,-0.06632409989833832,0.1173152923583984,-0.02884101867675781,2,0.6739371407474921,0.1028194570219108,-0.02882086029385317,0.7310310136826614,0.1891753226518631,-0.9794111847877502,-0.07047378271818161,-8.882797241210938,-48.37421417236328,12.97259521484375,2
1596230019.786112,118,0,102351.970091625,-1.100959180670822,1.199034530584779,1.365387881864252,-0.1767992079257965,-0.285081684589386,-0.005259884055703878,-0.05671142041683197,-0.08512037992477417,0.007633507251739502,2,0.6729215396055475,0.1006493506710865,-0.03169269023255267,0.73214884371492,0.1900340020656586,-0.9789777398109436,-0.07409261912107468,-8.816535949707031,-48.65052795410156,12.96875,2
1596230019.827006,119,0,102352.000188625,-1.080675342873816,1.173091750302623,1.363008381944504,-0.08199944347143173,-0.04203041642904282,-0.07492667436599731,-0.1028652042150497,0.07911837100982666,0.04484504461288452,2,0.6710487681915499,0.09871115622130072,-0.03373839942834894,0.7340378269284672,0.1901956647634506,-0.9784896373748779,-0.07989931851625443,-8.66534423828125,-48.66574096679688,12.85922241210938,2
1596230019.846134,120,0,102352.030286625,-1.078085659928065,1.172278658225326,1.359201094521116,-0.0957501009106636,0.05156465992331505,-0.09508518129587173,0.02450574934482574,-0.01886844635009766,-0.002376794815063477,2,0.6701893231386711,0.1004828163689013,-0.03427521449655863,0.7345575605658499,0.1935625970363617,-0.9776971340179443,-0.08149895071983337,-8.592170715332031,-48.58352661132812,12.62936401367188,2
1596230019.884185,121,0,102352.060383625,-1.058877743283406,1.1516521220678,1.356909229392521,-0.1884001940488815,-0.2484123706817627,0.0181767325848341,0.0627208948135376,-0.02064067125320435,-0.0531342625617981,2,0.6684294641962075,0.1000462701283407,-0.03484306596987014,0.736192159639964,0.1938868165016174,-0.9772132039070129,-0.08638559281826019,-8.412544250488281,-48.76106262207031,12.45098876953125,2
1596230019.906187,122,0,102352.0904815417,-1.037161550168664,1.120199422057257,1.355210730062649,-0.1131241619586945,-0.3528732657432556,0.01944418996572495,-0.06696924567222595,0.03778469562530518,-0.06471407413482666,2,0.6664528211662398,0.09622573072185533,-0.03786664613314233,0.7383409232248376,0.192567452788353,-0.9768512845039368,-0.09316249191761017,-8.414169311523438,-48.71854400634766,12.35565185546875,2
1596230019.943491,123,0,102352.1205785417,-1.032985170448726,1.110915455268766,1.353835641537087,-0.002957753837108612,-0.04934815317392349,-0.1280335187911987,-0.1252110749483109,0.06035792827606201,0.02970898151397705,2,0.6657909428941814,0.09461086112938441,-0.03984360821505684,0.7390424097081886,0.1928979009389877,-0.9765561819076538,-0.09554240852594376,-8.209396362304688,-48.90718841552734,12.20809936523438,2
1596230019.968162,124,0,102352.1506765417,-1.050546502516111,1.12796065208274,1.349590946955901,0.02701012045145035,0.02192158624529839,-0.1267697066068649,0.07264997065067291,-0.02079224586486816,0.01459705829620361,2,0.6661117130687956,0.09636915423430356,-0.04197715694610687,0.7384078959804158,0.1982424408197403,-0.9756336808204651,-0.09401634335517883,-8.285079956054688,-48.76765441894531,12.342041015625,2
1596230020.004202,125,0,102352.1807735417,-1.032462527508144,1.109846315656777,1.349766884394956,-0.1547975838184357,-0.08942186087369919,0.1849851161241531,0.05326336622238159,-0.03035098314285278,0.03279173374176025,2,0.6649026172147859,0.09563894991739774,-0.04126774384726678,0.7396315335116515,0.1963532269001007,-0.9756723046302795,-0.09751540422439575,-8.140098571777344,-48.91236114501953,12.1910400390625,2
1596230020.026652,126,0,102352.2108715417,-1.022948679065028,1.098143272484938,1.350647870889563,0.01631012745201588,-0.1072351783514023,-0.1621260941028595,-0.05718651413917542,0.08567410707473755,0.03862285614013672,2,0.6643934721746207,0.09420097768105376,-0.04136461062383234,0.74026782006542,0.1944326609373093,-0.9758650660514832,-0.09941498190164566,-8.130317687988281,-48.942138671875,12.06918334960938,2
1596230020.069343,127,0,102352.2409685417,-1.028559118855308,1.098911639322492,1.34636609424753,-0.06612689793109894,-0.161321759223938,0.03537297993898392,0.03895673155784607,-0.05465662479400635,-0.05423915386199951,2,0.6637732901246137,0.09393055542727435,-0.04450689317200218,0.7406762192758237,0.1982292383909225,-0.9749210476875305,-0.1011641398072243,-7.878448486328125,-48.95352172851562,11.9971923828125,2
1596230020.08772,128,0,102352.2710665417,-1.010704832894776,1.08127588345956,1.348855841449859,0.01370842196047306,0.01718495786190033,0.1125066950917244,-0.1284649968147278,-0.03076714277267456,0.03168755769729614,2,0.6630846639346055,0.0925605342344466,-0.04297650156182398,0.7415553776356528,0.1942716389894485,-0.9754721522331238,-0.1035025492310524,-7.955207824707031,-48.89955902099609,12.09481811523438,2
1596230020.124273,129,0,102352.3011635417,-1.036968624482833,1.109563985049829,1.348671984264554,0.04795467108488083,0.03221973404288292,-0.2357408255338669,0.01606754958629608,0.1162405014038086,0.01192128658294678,2,0.6648840841768222,0.09437260602759287,-0.04336739810243395,0.7396906207712333,0.1972816437482834,-0.9754316806793213,-0.09804593026638031,-8.049552917480469,-48.99292755126953,12.08157348632812,2
1596230020.147171,130,0,102352.3312615417,-1.015518324412259,1.084111364112935,1.345490180422074,-0.2295741587877274,-0.1209620386362076,0.2564462423324585,0.04072311520576477,-0.1303552389144897,-0.05152851343154907,2,0.6626470764922869,0.09303650789568424,-0.04485079690118421,0.741775913680048,0.1974649876356125,-0.9747257828712463,-0.1044861227273941,-7.690406799316406,-48.72411346435547,12.120849609375,2
1596230020.184917,131,0,102352.3613585417,-0.9940641760235663,1.06625740559725,1.345808128809208,-0.02063934132456779,0.1252890825271606,-0.1967612951993942,-0.1031215786933899,0.1618614196777344,0.02942085266113281,2,0.6613253420811335,0.09341439032916019,-0.04269975804055448,0.7430338906580763,0.195296972990036,-0.9747967123985291,-0.1078450903296471,-7.865402221679688,-48.93037414550781,11.85385131835938,2
1596230020.207192,132,0,102352.3914565417,-1.005299838306733,1.079696107300854,1.339881920168992,-0.09369403123855591,0.07534676790237427,-0.07471790164709091,-0.02083338797092438,-0.04222398996353149,0.0255122184753418,2,0.660852419807791,0.09647549661302149,-0.04423167583140347,0.7429738018400955,0.2018187493085861,-0.9734575152397156,-0.1079331189393997,-7.535713195800781,-48.86257171630859,11.74142456054688,2
1596230020.249717,133,0,102352.4215535417,-0.9863650554978811,1.061038572087557,1.339870180262218,-0.03484500199556351,-0.0815834254026413,0.1128617003560066,0.06826844811439514,-0.01344859600067139,-0.01156330108642578,2,0.6595309937565969,0.09579229811377946,-0.04335392518638342,0.7442870694540593,0.1997804492712021,-0.9734548330307007,-0.1116854101419449,-7.658470153808594,-48.93848419189453,11.6539306640625,2
1596230020.267317,134,0,102352.4516515417,-0.9836532791504587,1.056358420690227,1.342019235823892,-0.01195891760289669,-0.08690804243087769,0.02609403617680073,0.01783658564090729,0.04062163829803467,0.01581978797912598,2,0.6597818977614174,0.09430413766213275,-0.04324105441279585,0.7442611616610634,0.1974331438541412,-0.9739444851875305,-0.1115891560912132,-7.896995544433594,-49.03500366210938,11.61834716796875,2
1596230020.310524,135,0,102352.4817485417,-0.9753632961156463,1.043761228574326,1.341732291147969,-0.1144567206501961,-0.1606675833463669,0.0421389676630497,0.02150319516658783,-0.01622235774993896,-0.02299898862838745,2,0.6590538567428619,0.0924325743303307,-0.04439418262884931,0.7450728604748729,0.1962543129920959,-0.973879337310791,-0.1142084673047066,-7.782051086425781,-49.03044891357422,11.46810913085938,2
1596230020.327632,136,0,102352.5118465417,-0.9579341251760733,1.024811779185643,1.340928503243864,-0.09369076788425446,-0.03400440514087677,0.03045043721795082,-0.01841907203197479,0.00863182544708252,0.05547142028808594,2,0.6576476276519156,0.09134043975851908,-0.04437156711554407,0.7464501622025084,0.1947238892316818,-0.9736965298652649,-0.1183130443096161,-7.918937683105469,-49.02359008789062,11.1668701171875,2
1596230020.369617,137,0,102352.5419435417,-0.9540030286670672,1.018134319315442,1.341186198192167,0.04218554496765137,-0.112663209438324,0.04466984793543816,-0.01481825113296509,0.01661014556884766,-0.03979784250259399,2,0.6573804578829989,0.0900645966444093,-0.04502316302320525,0.7468013211990719,0.1937154084444046,-0.9737551808357239,-0.1194786056876183,-8.011558532714844,-48.90158843994141,11.38238525390625,2
1596230020.387823,138,0,102352.5720415417,-0.9524691568332683,1.013958110522764,1.342527906291547,-0.05321196094155312,-0.03523369133472443,0.004501775372773409,-0.08381952345371246,-0.002338588237762451,0.03609693050384521,2,0.6575323197345928,0.08861853941956443,-0.04542897639344418,0.7468160620424713,0.1921055316925049,-0.9740597009658813,-0.119596004486084,-7.980995178222656,-49.04669189453125,11.2398681640625,2
1596230020.428787,139,0,102352.6021385417,-0.9558614859211524,1.016832339936723,1.338325863278816,-0.01177228521555662,-0.005131689831614494,-0.2600155174732208,-0.1074377149343491,0.0262150764465332,0.01951378583908081,2,0.6567632725332613,0.08980172546558637,-0.04698636041178911,0.7472548844582741,0.1959273815155029,-0.9731001853942871,-0.1211953088641167,-7.938987731933594,-49.10519409179688,11.32049560546875,2
1596230020.447956,140,0,102352.6322365417,-0.9744276028830383,1.035114007735106,1.332380241477637,0.02282246947288513,-0.02221154607832432,-0.1495960354804993,0.04990856349468231,0.01576077938079834,0.001810073852539062,2,0.6566678157202139,0.0922781876089572,-0.04967747967158437,0.7468628193981971,0.2030815035104752,-0.9717132449150085,-0.1205442324280739,-7.701148986816406,-48.99160766601562,11.32550048828125,2
1596230020.492731,141,0,102352.6623335417,-0.9758914860107896,1.033871295353862,1.33065741739621,-0.04709332063794136,-0.1450137794017792,-0.05430880561470985,0.005709975957870483,-0.01347720623016357,-0.02334153652191162,2,0.6563067479528029,0.09184202682601442,-0.05114498335106082,0.7471349847284096,0.204370379447937,-0.9713049530982971,-0.1216529905796051,-7.433731079101562,-48.95002746582031,11.39474487304688,2
1596230020.508238,142,0,102352.6924315417,-0.9841003163668089,1.038344297175127,1.327320482693696,0.06363562494516373,-0.07507956027984619,-0.19753697514534,-0.04587112367153168,0.03368687629699707,0.02962827682495117,2,0.6560338017372115,0.09180651079220783,-0.05373876733825877,0.7471970396149678,0.2077040076255798,-0.9705058932304382,-0.1223824322223663,-7.270103454589844,-49.10015869140625,11.36663818359375,2
1596230020.549469,143,0,102352.7225285417,-0.9962035788976994,1.050495080287864,1.324080524263329,-0.07759460061788559,0.1062091737985611,0.03384694084525108,0.05343495309352875,-0.006996393203735352,0.02602052688598633,2,0.6561874505821996,0.09333753785838722,-0.05524405431478535,0.7467625337409487,0.2119028568267822,-0.9697197079658508,-0.1214122697710991,-7.261650085449219,-49.28108215332031,11.59286499023438,2
1596230020.56835,144,0,102352.7526265417,-0.9734257791709023,1.032709689983171,1.325694016571467,-0.07543683052062988,0.07688245922327042,0.1010506823658943,-0.01063835620880127,-0.02855539321899414,-0.04295313358306885,2,0.655014773343746,0.09367951020814322,-0.05207995116854031,0.7479756124702968,0.208366259932518,-0.9701125025749207,-0.124359592795372,-7.053581237792969,-49.04258728027344,11.21453857421875,2
1596230020.609314,145,0,102352.7827235417,-0.9799021870036843,1.03917135448165,1.324780981675668,0.08118384331464767,-0.02630873583257198,-0.1408381164073944,-0.04510517418384552,0.08158618211746216,-0.0368303656578064,2,0.6552771785843263,0.09424371993744834,-0.05265685944832282,0.7476345394103346,0.2099293917417526,-0.9698905348777771,-0.1234598830342293,-7.040458679199219,-48.90435791015625,11.25213623046875,2
1596230020.628517,146,0,102352.8128215417,-0.9872148023386409,1.045598131268884,1.323829009920418,-0.03681186586618423,0.0101168891415,0.05531051009893417,0.03817050158977509,-0.04667043685913086,0.04314017295837402,2,0.6555748664236731,0.09453121856888652,-0.05356814660553488,0.7472723843478828,0.2115170061588287,-0.9696582555770874,-0.1225708872079849,-7.0062255859375,-49.11197662353516,11.30258178710938,2
1596230020.667498,147,0,102352.8429185417,-0.9793204183042225,1.03752579476451,1.325052737094329,-0.002492808736860752,-0.02500961720943451,-0.006684417370706797,-0.06935721635818481,0.0147896409034729,-0.03002524375915527,2,0.6552691407520121,0.09373863320358833,-0.05289728080119438,0.7476879888452296,0.209498405456543,-0.9699566960334778,-0.1236708462238312,-6.857986450195312,-49.07342529296875,11.2335205078125,2
1596230020.688787,148,0,102352.8730165417,-0.9866215629614435,1.045690400111389,1.321347945412114,-0.0008444217965006828,0.07268763333559036,-0.2023567110300064,-0.05777665972709656,0.0512688159942627,0.01715093851089478,2,0.654982237273145,0.0954969882183033,-0.05405950735785442,0.747633852845878,0.213609591126442,-0.9690487384796143,-0.1237571910023689,-7.029006958007812,-49.009521484375,11.2210693359375,2
1596230020.727633,149,0,102352.9031135417,-0.9945498477200274,1.056526033697885,1.318950783591472,-0.01895657181739807,0.1045442968606949,0.04568621888756752,0.0486457496881485,-0.0360492467880249,0.02004450559616089,2,0.6551130587203891,0.09766332618299567,-0.05419349956923647,0.7472295041452379,0.2169595807790756,-0.9684541821479797,-0.1225775107741356,-6.77923583984375,-49.04662322998047,11.285888671875,2
1596230020.749118,150,0,102352.9332105417,-0.9791977351062894,1.043910988358199,1.321125220010453,-0.0838121771812439,0.06819324195384979,0.1082178875803947,-0.00116264820098877,0.004628181457519531,0.004843533039093018,2,0.6545261184605436,0.09732808281790861,-0.05193293345253891,0.7479478487335585,0.2135755866765976,-0.9689937233924866,-0.1242456063628197,-6.812942504882812,-49.07059478759766,11.16619873046875,2
1596230020.787002,151,0,102352.9633085417,-0.9743248227309017,1.041017307008579,1.320748549432255,0.0122325336560607,0.03997483104467392,-0.07209367305040359,-0.03094671666622162,0.04280310869216919,-0.03261357545852661,2,0.6541269574702355,0.0979509805054922,-0.05116902661912121,0.7482681318774154,0.2135292738676071,-0.9689006209373474,-0.1250470578670502,-7.038772583007812,-49.01860046386719,11.23410034179688,2
1596230020.809132,152,0,102352.9934055417,-0.9828318757168458,1.049706775374591,1.320122805724705,0.01884200237691402,-0.01760895922780037,0.004594818688929081,0.02667687833309174,-0.00834888219833374,0.007280886173248291,2,0.6546243420575895,0.09860272426719838,-0.05169472043231882,0.7477113115228937,0.2151339948177338,-0.9687455892562866,-0.1234889477491379,-7.1348876953125,-49.09962463378906,11.21527099609375,2
1596230020.851633,153,0,102353.0235035417,-0.9757006979898059,1.041868176926392,1.320373703394153,-0.07026331871747971,-0.02210502326488495,0.02443431317806244,-0.007737219333648682,0.005615115165710449,0.01176095008850098,2,0.654129292581333,0.09793026095192822,-0.05151755894361726,0.7482450668132643,0.2139499634504318,-0.9688077569007874,-0.1250490695238113,-6.942352294921875,-49.21726989746094,11.16876220703125,2
1596230020.86932,154,0,102353.0536005417,-0.9747887864218728,1.041996181154995,1.319535683416643,0.03301175311207771,0.05398835986852646,-0.04486562684178352,-0.009561851620674133,0.02418816089630127,0.003984212875366211,2,0.653894218078558,0.09852364236398528,-0.05138424481709836,0.7483816667755397,0.2146662920713425,-0.9685997366905212,-0.1254308819770813,-7.009475708007812,-49.19477081298828,11.198486328125,2
1596230020.908259,155,0,102353.08369875,-0.9784435147187722,1.045229756464961,1.319814341640563,-0.008409088477492332,-0.05275783687829971,0.04094377160072327,-0.002426236867904663,-0.01388841867446899,0.001418411731719971,2,0.6542217676071582,0.09845580674848392,-0.05161087230875039,0.7480886728183993,0.2148372530937195,-0.9686689972877502,-0.1246006637811661,-7.159843444824219,-49.2452392578125,11.10733032226562,2
1596230020.929536,156,0,102353.11379575,-0.973277749393071,1.039481253861037,1.319858392787899,-0.03254058957099915,0.06319211423397064,-0.02857842296361923,-0.06246563792228699,0.01473313570022583,0.01663786172866821,2,0.6538300571031522,0.09798122606681803,-0.05154474887642313,0.7484978487322362,0.2140804827213287,-0.9686799645423889,-0.1258118748664856,-7.022834777832031,-49.16413879394531,11.06845092773438,2
1596230020.971998,157,0,102353.14389375,-0.9794796195456221,1.048458165498401,1.318035073262245,0.08900926262140274,0.0179789699614048,-0.08041545748710632,-0.01360824704170227,0.02260351181030273,0.01335066556930542,2,0.6539469867432746,0.09985134042873337,-0.05147473697555943,0.7481533263281331,0.2167317271232605,-0.9682255983352661,-0.1247660964727402,-6.882698059082031,-49.14410400390625,10.96661376953125,2
1596230020.989844,158,0,102353.17399075,-0.9932353806952862,1.060760662534491,1.320319110353925,-0.1168044060468674,0.04465377330780029,0.07857587933540344,0.06246230006217957,0.003465652465820312,-0.02107995748519897,2,0.6554699072594736,0.09926708995676775,-0.05190247351210731,0.7468677435232302,0.2163197994232178,-0.9687942266464233,-0.1210104897618294,-6.910446166992188,-49.21533966064453,11.17999267578125,2
1596230021.031681,159,0,102353.20408875,-0.9627407562519315,1.032689915014319,1.319914786486521,-0.05173482000827789,0.0152284475043416,0.06326697021722794,-0.02739831805229187,-0.01656365394592285,-0.01635885238647461,2,0.6531524882216468,0.09886501725887969,-0.04980214182702608,0.7490910205255614,0.21317458152771,-0.9686939716339111,-0.1272350698709488,-7.2432861328125,-49.29763031005859,11.01272583007812,2
