loggingTime,loggingSample,identifierForVendor,motionTimestamp_sinceReboot,motionYaw,motionRoll,motionPitch,motionRotationRateX,motionRotationRateY,motionRotationRateZ,motionUserAccelerationX,motionUserAccelerationY,motionUserAccelerationZ,motionAttitudeReferenceFrame,motionQuaternionX,motionQuaternionY,motionQuaternionZ,motionQuaternionW,motionGravityX,motionGravityY,motionGravityZ,motionMagneticFieldX,motionMagneticFieldY,motionMagneticFieldZ,motionMagneticFieldCalibrationAccuracy
1596230230.73246,1,0,102562.9025061667,2.039558249247918,-1.133720849498731,1.186052330407289,-0.07873544096946716,0.1000521928071976,0.01363581046462059,-0.0212823748588562,0.02110874652862549,0.01983022689819336,2,0.6262251158449496,0.1685433013795291,0.4388893706463092,0.6219415352004664,-0.340038925409317,-0.9268945455551147,-0.15887051820755,-23.63030242919922,-43.407470703125,14.34829711914062,2
1596230230.747518,2,0,102562.9326031667,2.03728572801127,-1.131226814317566,1.184733798852307,-0.03702834248542786,-0.07817857712507248,0.00488572521135211,-0.00789952278137207,0.003775894641876221,-0.009545266628265381,2,0.6257951936177472,0.1681110909858169,0.4393816761238302,0.6221436418706068,-0.3407473862171173,-0.9263988733291626,-0.1602380722761154,-23.73268127441406,-43.51219177246094,14.23065185546875,2
1596230230.784764,3,0,102562.9627011667,2.035340649635295,-1.130990018242254,1.184581832132954,-0.01946127414703369,-0.01213449519127607,0.007071229629218578,-0.0006064474582672119,0.005228519439697266,0.002590775489807129,2,0.6258977967613903,0.1675187721318782,0.4388988720337977,0.6225409631348646,-0.3408370912075043,-0.9263416528701782,-0.1603788137435913,-23.51661682128906,-43.45421600341797,14.18032836914062,2
1596230230.807724,4,0,102562.9927991667,2.039371351837155,-1.135142961658005,1.182888260921749,0.04871303960680962,-0.02597818151116371,0.1077207177877426,0.001018643379211426,0.01124870777130127,-0.02564024925231934,2,0.6263776037872789,0.1668507367766949,0.4393899982782351,0.6218910685898034,-0.3429221510887146,-0.9257023930549622,-0.1596238613128662,-23.52661895751953,-43.37202453613281,14.47100830078125,2
1596230230.84681,5,0,102563.0228961667,2.044266740330576,-1.140514614223473,1.180431519357367,0.03004327788949013,-0.07046528160572052,0.1147928610444069,0.003579586744308472,0.009144306182861328,-4.422664642333984e-05,2,0.6270166269168523,0.1657902299461154,0.4400065431972943,0.6210941603209763,-0.3458401560783386,-0.9247702956199646,-0.1587274968624115,-23.90054321289062,-43.31450653076172,14.38970947265625,2
1596230230.867984,6,0,102563.0529941667,2.050488722838415,-1.149058039432445,1.178760311758384,0.04321759939193726,-0.1264255046844482,0.04821423441171646,-0.0004814565181732178,0.02245998382568359,-0.03153276443481445,2,0.6282933570329078,0.1644619347849185,0.4397856634722335,0.6203129979712608,-0.3485930562019348,-0.9241330623626709,-0.1563994586467743,-23.77816009521484,-43.30771636962891,14.46612548828125,2
1596230230.908186,7,0,102563.0830911667,2.056780920923353,-1.162263779076447,1.177086623636709,0.06500611454248428,-0.3634771108627319,0.109434962272644,-0.0266130268573761,0.02362632751464844,-0.01860660314559937,2,0.630594161946439,0.1617174938942141,0.4381104904775424,0.6198852595880995,-0.3520472645759583,-0.9234923124313354,-0.1523969173431396,-23.88897705078125,-43.03368377685547,14.596435546875,2
1596230230.928188,8,0,102563.1131891667,2.057176220225323,-1.169256195257939,1.177038049290699,-0.1323257684707642,0.07526672631502151,-0.2194109112024307,0.01455435156822205,0.07629603147506714,0.151885986328125,2,0.6320881772385938,0.1596560080270739,0.436041034839942,0.6203569090324663,-0.3531453609466553,-0.9234736561775208,-0.1499489843845367,-23.91414642333984,-43.04189300537109,14.78607177734375,2
1596230230.968929,9,0,102563.1432871667,2.040595260794171,-1.156974302623971,1.18365459477502,0.003476926125586033,-0.04216179996728897,-0.1263962984085083,0.01259821653366089,-0.1384214162826538,-0.08290219306945801,2,0.6310780823545348,0.1607268290596834,0.4326647657842299,0.6234650758303255,-0.3456753790378571,-0.925991952419281,-0.1518146842718124,-23.29625701904297,-43.19518280029297,14.76483154296875,2
1596230230.988409,10,0,102563.1733841667,2.037692909749515,-1.151127095762141,1.17901169544106,-0.1482568979263306,0.03191795945167542,0.1704248487949371,-0.01640605926513672,0.01506495475769043,-0.02120554447174072,2,0.6297967704130483,0.1598885556714118,0.4350771298893085,0.6232974034258766,-0.3487040996551514,-0.9242290854454041,-0.1555833518505096,-23.29576873779297,-43.35573577880859,14.68267822265625,2
1596230231.026657,11,0,102563.2034821667,2.042654224913325,-1.157870674609755,1.181149172005203,0.1341513693332672,-0.01994769647717476,-0.1986725330352783,-0.05922329425811768,0.1047115325927734,-0.1434301733970642,2,0.6309775434867934,0.1601552315779313,0.4338191637552721,0.6229114972365599,-0.3479352295398712,-0.9250431656837463,-0.1524352878332138,-23.47431182861328,-43.20835876464844,14.7415771484375,2
1596230231.048593,12,0,102563.2335791667,2.045732641331418,-1.157736313702785,1.186867251167197,0.1085477098822594,0.2142244428396225,-0.08026070892810822,-0.06960740685462952,-0.007268548011779785,0.01533615589141846,2,0.6309905642947354,0.1633179044410514,0.4330037679852983,0.6226444617596517,-0.3430646061897278,-0.9272000789642334,-0.150356337428093,-23.4342041015625,-43.31539916992188,14.6690673828125,2
1596230231.087083,13,0,102563.2636775417,2.054955338240524,-1.157843162431466,1.190227581890074,0.2766376435756683,0.2365322262048721,-0.07139689475297928,0.09087455272674561,-0.01905936002731323,-0.0623856782913208,2,0.630415905051453,0.167456490629564,0.4347686337411706,0.6208947622560193,-0.340224415063858,-0.9284535050392151,-0.149068221449852,-23.31394195556641,-43.20181274414062,14.69854736328125,2
1596230231.108799,14,0,102563.2937755417,2.08305775174125,-1.184326727528215,1.195456601109848,0.3887606859207153,-0.2838346660137177,-0.05255619063973427,0.2278265655040741,-0.01054227352142334,-0.04239046573638916,2,0.6340162842403043,0.1701054724317678,0.433434055961488,0.6174321904489324,-0.3395512998104095,-0.9303831458091736,-0.1381749659776688,-23.38288879394531,-43.19142913818359,14.98287963867188,2
1596230231.148082,15,0,102563.3238725417,2.093798337244664,-1.206715096105149,1.194835952897893,0.1236361265182495,-0.4490600228309631,0.3010049164295197,0.2837902307510376,-0.06410229206085205,-0.01766490936279297,2,0.6379229723898205,0.1663793073182563,0.42982651526379,0.6169451427468792,-0.3430986106395721,-0.9301554560661316,-0.1307444125413895,-23.17369842529297,-43.02761840820312,15.77828979492188,2
1596230231.16901,16,0,102563.3539705417,2.138520550004883,-1.25792468735076,1.186222066814218,0.5816911458969116,-0.4558922350406647,0.533329963684082,0.2391004264354706,0.00725710391998291,-0.2988296747207642,2,0.6450497425743781,0.1617851485426595,0.4298565859340582,0.6107043875950836,-0.3569519519805908,-0.9269582629203796,-0.1154727935791016,-23.54147338867188,-42.61811828613281,16.34841918945312,2
1596230231.209257,17,0,102563.3840685417,2.190384670693561,-1.32883901627482,1.176210953172684,0.5431158542633057,-1.085500836372375,0.4446625709533691,0.1603517234325409,0.1170049905776978,-0.1217804551124573,2,0.6560590403543241,0.1534004259656127,0.4256812942369063,0.6040284518405612,-0.3732276856899261,-0.9231560230255127,-0.09210968762636185,-23.72012329101562,-42.11499786376953,17.20602416992188,2
1596230231.229585,18,0,102563.4141655417,2.241806077242189,-1.412396863561315,1.16607716358517,0.6037923693656921,-1.2732994556427,0.5191023945808411,0.07376524806022644,0.1094835996627808,-0.05172228813171387,2,0.6699910783527216,0.1416208251782297,0.4165665281646709,0.5979363388935873,-0.388831228017807,-0.9192129969596863,-0.06211099401116371,-23.46189117431641,-41.35951995849609,18.90408325195312,2
1596230231.269865,19,0,102563.4442635417,2.287916492357058,-1.485461819163762,1.153016378211511,0.470065712928772,-0.7445141673088074,0.456295371055603,-0.1104905009269714,-0.006739616394042969,0.03603553771972656,2,0.6823540908620618,0.1307761434283753,0.4095364367787568,0.5912448960282923,-0.404256284236908,-0.9139919281005859,-0.03458099067211151,-23.58291625976562,-40.96916198730469,19.77493286132812,2
1596230231.289461,20,0,102563.4743605417,2.32550992454936,-1.53900670651493,1.140272912231017,0.5191954374313354,-0.5936503410339355,0.4237800538539886,-0.193169891834259,0.09568691253662109,0.01034092903137207,2,0.6914721098521477,0.1234252581578204,0.4059854997569188,0.5846437529240497,-0.4171356856822968,-0.9087474346160889,-0.01326505374163389,-23.77845001220703,-40.19663238525391,21.29833984375,2
1596230231.327209,21,0,102563.5044585417,2.367899336986364,-1.589407183754096,1.133425002660795,0.7719218730926514,-0.142696276307106,-0.03624679520726204,-0.3087118268013,0.1645915508270264,-0.053253173828125,2,0.6994777134431668,0.1211284691704344,0.4027709576172674,0.5777840510545036,-0.4234864115715027,-0.9058681726455688,0.007882355712354183,-23.74269866943359,-39.98681640625,21.8353271484375,2
1596230231.349626,22,0,102563.5345565417,2.429309656654731,-1.63742517611298,1.139877531304299,0.7167349457740784,0.6506358981132507,-0.434194952249527,-0.2711834013462067,0.07543885707855225,0.06378555297851562,2,0.7047785474509431,0.1311203222431647,0.4016990693777041,0.5698531312492986,-0.4167791306972504,-0.908582329750061,0.02781067974865437,-23.78006744384766,-39.18196868896484,23.00491333007812,2
1596230231.388109,23,0,102563.5646535417,2.487244345888802,-1.680373832210057,1.151260427908855,0.9110943078994751,0.1368952691555023,-0.3665980398654938,-0.0734216570854187,-0.06335639953613281,-0.009298324584960938,2,0.7083502897637268,0.1432225946127479,0.3997993821184389,0.5638153085631148,-0.4048938453197479,-0.9132781028747559,0.04454568773508072,-23.39627838134766,-39.34722137451172,23.45370483398438,2
1596230231.409761,24,0,102563.5947515417,2.536523857834607,-1.720435225084912,1.157678262270863,0.2889764904975891,0.2067005336284637,-0.2663247883319855,0.174097090959549,-0.03420603275299072,0.2623740434646606,2,0.7120043662473873,0.1515763111086422,0.3976755636797963,0.5585057653691816,-0.3969810009002686,-0.9158734679222107,0.05985119193792343,-23.22997283935547,-38.80085754394531,24.37094116210938,2
1596230231.447051,25,0,102563.6248485417,2.558937986847927,-1.732424953869259,1.157952958116348,0.3420669734477997,0.3315100371837616,0.2347094267606735,0.2649314701557159,-0.1009432673454285,0.1106381416320801,2,0.712636095147049,0.1563098381478474,0.3995726144077338,0.5550304480352863,-0.3959862887859344,-0.9159837365150452,0.06456594169139862,-23.22945404052734,-38.66639709472656,24.63369750976562,2
1596230231.47005,26,0,102563.6549465417,2.576148064489702,-1.74091988831378,1.145949109817788,0.2113716304302216,0.04847225174307823,0.3267402052879333,0.07371652126312256,-0.008556127548217773,0.1287872791290283,2,0.7144709926536725,0.156279424358141,0.4044060892394336,0.5491482679759634,-0.406231701374054,-0.9111016988754272,0.06978411227464676,-23.61082458496094,-38.00990295410156,24.70779418945312,2
1596230231.507223,27,0,102563.6850445417,2.583858636565226,-1.749980487232228,1.140949154431848,0.03911291435360909,-0.04865958541631699,0.02222585678100586,-0.1254214942455292,-0.006460309028625488,0.0652318000793457,2,0.7163246449334537,0.1549690773222906,0.4045596274958291,0.5469873119626489,-0.4100598394870758,-0.9090294241905212,0.07427282631397247,-23.77637481689453,-38.03812408447266,24.83645629882812,2
1596230231.530048,28,0,102563.7151415417,2.590556832164479,-1.756968196090025,1.138738769619549,0.2077718675136566,-0.05596805736422539,0.05666591599583626,-0.1504620313644409,0.07605409622192383,-0.06655681133270264,2,0.7174972379258904,0.1547635240568517,0.4044469675706615,0.5455901244794049,-0.4115042686462402,-0.9081060886383057,0.07750806957483292,-24.00206756591797,-37.98203277587891,24.94097900390625,2
1596230231.568391,29,0,102563.7452395417,2.619301731313189,-1.776848811114735,1.139538260705693,0.4937823116779327,0.5163705945014954,-0.2169946730136871,0.059316486120224,0.1032485961914062,-0.03265953063964844,2,0.7191545264762953,0.1599345989609023,0.4049180917775038,0.5415524240979493,-0.4091714322566986,-0.9084405899047852,0.08552461862564087,-23.87429809570312,-37.71278381347656,25.24188232421875,2
1596230231.590466,30,0,102563.7753375417,2.647512443077479,-1.792645447411624,1.13785293084093,0.1861223131418228,-0.004464303143322468,0.1485664397478104,0.01885068416595459,-0.1059015989303589,0.01944935321807861,2,0.7202985470305808,0.1653086986827446,0.4072523655639526,0.5366455924289908,-0.4092622101306915,-0.9077348113059998,0.09231392294168472,-24.07146453857422,-37.43798828125,25.52590942382812,2
1596230231.628135,31,0,102563.8054345417,2.653796030693427,-1.800926847319653,1.133367263507354,0.1751192510128021,-0.1513490080833435,0.1580000072717667,0.3736994862556458,-0.008087038993835449,0.08442819118499756,2,0.7220962806299047,0.1639844647538134,0.4070376271701276,0.534795747612532,-0.4124443233013153,-0.9058437347412109,0.09662788361310959,-24.06678009033203,-37.04636383056641,25.79412841796875,2
1596230231.650942,32,0,102563.8355325417,2.64918672552705,-1.806403709590804,1.120348683000392,-0.2355937659740448,-0.4968066215515137,0.6601482629776001,0.1420681178569794,-0.1150880455970764,0.146543025970459,2,0.7253983437718207,0.1568825006768795,0.4069648717480641,0.5325080871890112,-0.4233408868312836,-0.9002522826194763,0.1016297489404678,-24.40951538085938,-36.87241363525391,26.0277099609375,2
1596230231.686885,33,0,102563.8656295417,2.62290248009178,-1.801214054115565,1.105542078266503,-0.1659747362136841,-0.7142097949981689,0.4098449349403381,0.2698690593242645,0.1018507480621338,0.1433461904525757,2,0.7283179313057206,0.1441710603214012,0.4054286707041042,0.533287270442713,-0.4367927610874176,-0.8937075138092041,0.1024646088480949,-24.84646606445312,-36.75820159912109,26.21578979492188,2
1596230231.710727,34,0,102563.8957275417,2.601441662821541,-1.811533270741584,1.092172815135885,-0.4686754643917084,-1.213088154792786,0.8140429854393005,0.4807363748550415,-0.1403017640113831,0.3973342180252075,2,0.733584164631331,0.1294488923852105,0.3991850364752918,0.5345546101472578,-0.4472766518592834,-0.8876296877861023,0.1098054870963097,-24.42770385742188,-36.61750030517578,26.46401977539062,2
1596230231.746832,35,0,102563.9258255417,2.521529288806097,-1.780877129610338,1.05851280683581,-1.28640878200531,-1.591106772422791,1.875651478767395,0.3573124706745148,-0.1254389882087708,0.3471009731292725,2,0.7359028994839062,0.09775772735436117,0.3973749679196141,0.5394288592256546,-0.4793921113014221,-0.8716274499893188,0.1022192984819412,-24.87675476074219,-36.91506195068359,26.36099243164062,2
1596230231.771041,36,0,102563.9559225417,2.419903263151067,-1.743356974271798,1.006646355454779,-1.688368916511536,-1.461354732513428,2.006317138671875,-0.1907497644424438,0.02718162536621094,0.1741335391998291,2,0.7369006994189577,0.05369004630153634,0.3970813267085763,0.5444456661723178,-0.5267564058303833,-0.845043420791626,0.09181052446365356,-25.27353668212891,-36.32696533203125,26.48928833007812,2
1596230231.808382,37,0,102563.9860205417,2.310180763480881,-1.681563200841304,0.9642734693258294,-1.40791642665863,-0.3485195934772491,1.173772931098938,-0.6671541333198547,0.3752055168151855,-0.2651197910308838,2,0.728862447438234,0.016258750871817,0.4010070874180931,0.5546967434245449,-0.5665206909179688,-0.8216350078582764,0.06300962716341019,-26.30166625976562,-36.1417236328125,25.19625854492188,2
1596230231.831083,38,0,102564.0161175417,2.277110341753539,-1.647231888020714,0.9464080056501164,-0.09403819590806961,0.467545211315155,0.3187782168388367,-0.4576261043548584,0.1965538263320923,-0.1986653804779053,2,0.7226765582604167,0.007681210207991229,0.409208517167098,0.5569811397099818,-0.5828942060470581,-0.8113208413124084,0.04464081674814224,-26.93614196777344,-36.37242889404297,24.47711181640625,2
1596230231.870412,39,0,102564.0462155417,2.246633560423317,-1.608115911912088,0.9376473933395948,-1.185729026794434,0.5902031064033508,0.4623776972293854,0.2454478740692139,-0.00320279598236084,0.4311845302581787,2,0.7148544073561969,0.004621486157804777,0.4171907234803779,0.5611717834199326,-0.5912743806838989,-0.8061683177947998,0.02207636460661888,-27.88693237304688,-36.31021118164062,23.49237060546875,2
1596230231.891334,40,0,102564.0763135417,2.191689731155723,-1.555242889120038,0.9143828073348361,-0.5645266175270081,-0.3051009774208069,0.9426274299621582,-0.05584412813186646,0.09079480171203613,-0.3592832088470459,2,0.7036959037392956,-0.008142116777409836,0.4270021099835191,0.5678159241193961,-0.6102057099342346,-0.7921860814094543,-0.009491561912000179,-28.62669372558594,-36.38418579101562,22.54437255859375,2
1596230231.928316,41,0,102564.1064105417,2.185518982965284,-1.563260634650516,0.9023410268073671,-0.01486491225659847,-0.08519358932971954,-0.2653685212135315,-0.3695733547210693,0.3089046478271484,-0.4388920068740845,2,0.7052521047789149,-0.01686048267216311,0.4258419398700891,0.5665631930094095,-0.6197568774223328,-0.784779965877533,-0.004670385736972094,-29.22880554199219,-36.20140075683594,22.02780151367188,2
1596230231.951521,42,0,102564.1365085417,2.192507294788967,-1.555599329929375,0.9141298414053373,0.4840790629386902,0.7121434807777405,-0.2544824481010437,0.051372230052948,0.007248997688293457,-0.2881656885147095,2,0.7037732007816713,-0.00804546157675029,0.4271805569084779,0.567587257516734,-0.6104094386100769,-0.7920316457748413,-0.009277104400098324,-29.31130218505859,-36.63999938964844,22.10000610351562,2
1596230231.988057,43,0,102564.1666055417,2.221746452348822,-1.559987944040592,0.9120422736016902,0.3673754632472992,0.3601838350296021,0.417284220457077,0.2348449230194092,-0.227046012878418,0.075958251953125,2,0.7047637269541016,0.0002717367754493383,0.4344727580733244,0.560840019436158,-0.6120964884757996,-0.7907555103302002,-0.006616030819714069,-29.72304534912109,-36.27706146240234,21.88711547851562,2
1596230232.011683,44,0,102564.1967035417,2.217348288444358,-1.562215043504323,0.8955533022852685,-0.5245440602302551,-0.7567419409751892,0.5544211268424988,0.05824565887451172,-0.1593364477157593,0.3536659479141235,2,0.7051652070946126,-0.007748383206132081,0.4370700788835928,0.558257999481784,-0.6250644326210022,-0.7805550694465637,-0.005363986361771822,-29.89486694335938,-35.79717254638672,21.99188232421875,2
1596230232.049187,45,0,102564.2268015417,2.181757654739183,-1.564296596236032,0.8831074339359067,-0.7609601616859436,-0.9367408752441406,0.1573935747146606,-0.1360183954238892,0.1382441520690918,0.2052242755889893,2,0.705193276560995,-0.02529020994254721,0.4298455442028624,0.5632901320371095,-0.6347398161888123,-0.7727150321006775,-0.004125696141272783,-29.94786071777344,-35.66623687744141,22.2110595703125,2
1596230232.071933,46,0,102564.2568976667,2.156883232010147,-1.557211994258919,0.8851982851666989,-0.2437221109867096,0.006795787252485752,-0.1067914739251137,-0.06874847412109375,0.1476293802261353,-0.09465372562408447,2,0.7033632702912338,-0.03130299587588931,0.4247063758840712,0.5691438133836855,-0.6330775618553162,-0.7740405201911926,-0.008600465022027493,-29.68051910400391,-35.91609954833984,21.98895263671875,2
1596230232.106675,47,0,102564.2869956667,2.145977449399204,-1.55055310401486,0.8834496509636421,-0.3431335389614105,-0.2393707633018494,0.1818101853132248,0.006005525588989258,-0.01650381088256836,-0.03534519672393799,2,0.7017351085183722,-0.03385601425364393,0.4244343529975434,0.57120666968863,-0.6343585252761841,-0.772932231426239,-0.01284321583807468,-29.56687927246094,-36.26758575439453,21.793212890625,2
1596230232.132017,48,0,102564.3170936667,2.129771701386264,-1.543455801981422,0.8788283028901502,-0.1737770289182663,0.03558804094791412,0.004627596121281385,-0.1482816934585571,0.1071334481239319,-0.04443174600601196,2,0.6998188375425451,-0.03914484094604181,0.4236026854250793,0.5738310247283531,-0.6378152966499329,-0.7699918150901794,-0.01744255237281322,-29.56193542480469,-36.318359375,21.44869995117188,2
1596230232.168034,49,0,102564.3471906667,2.130779136344543,-1.534356245021368,0.8858109798759868,0.11369888484478,0.5489322543144226,-0.4035145044326782,-0.1452944278717041,0.0689055323600769,-0.1526863574981689,2,0.6980975813885835,-0.03369262290236391,0.4250715266059754,0.575185968504065,-0.6322418451309204,-0.7744283080101013,-0.02304914779961109,-29.68094635009766,-36.42020416259766,21.30291748046875,2
1596230232.192345,50,0,102564.3772886667,2.138572043437732,-1.518278435012659,0.8968853118569124,0.3488734066486359,0.8607863187789917,-0.1946562081575394,0.2403792142868042,-0.1024011373519897,-0.1074146032333374,2,0.6950678220649144,-0.02239284917653045,0.4297369953368652,0.5759388062241879,-0.6231865286827087,-0.7813869714736938,-0.03275856748223305,-29.7330322265625,-36.58483123779297,20.87936401367188,2
1596230232.226921,51,0,102564.4073856667,2.15553483178202,-1.512270316040761,0.8927567105416861,0.1694065779447556,0.3341103792190552,0.4258094727993011,0.178424596786499,-0.06237101554870605,-0.04892480373382568,2,0.6938229915604793,-0.01626042230675245,0.4378694328808617,0.5715029574356854,-0.6261935234069824,-0.7788038849830627,-0.03669051080942154,-29.85011291503906,-36.72174072265625,20.6761474609375,2
1596230232.252653,52,0,102564.4374836667,2.157685226602892,-1.509688032152126,0.8849864809385375,0.08445093035697937,0.0911167711019516,-0.07361389696598053,-0.1780126690864563,0.1341423988342285,-0.06548279523849487,2,0.6930753288383917,-0.01756963168375919,0.4415867069857959,0.5695076886513363,-0.6321178078651428,-0.773906409740448,-0.03867579251527786,-30.72360992431641,-36.17860412597656,20.54391479492188,2
1596230232.288278,53,0,102564.4675816667,2.167984588376874,-1.512515471615078,0.8952695405480732,0.2866301238536835,0.2254562079906464,-0.4348413944244385,-0.123673141002655,0.1161501407623291,-0.02852088212966919,2,0.6940210065857999,-0.01110821637830306,0.4406206427774918,0.5692671164808214,-0.6242470741271973,-0.7803776264190674,-0.03642290085554123,-30.4439697265625,-36.01720428466797,20.64218139648438,2
1596230232.312967,54,0,102564.4976786667,2.174519612356007,-1.512629287717834,0.9054888399191993,-0.0161602608859539,0.08923168480396271,-0.1827316880226135,0.08945047855377197,-0.05958902835845947,0.1146121025085449,2,0.6942836463089764,-0.0052007136748356,0.4395392535999307,0.5698671214324547,-0.6162572503089905,-0.7867270112037659,-0.03588634356856346,-29.96237945556641,-36.27988433837891,20.48886108398438,2
1596230232.348575,55,0,102564.5277766667,2.169780995412008,-1.506387222296876,0.9067398620273707,-0.05977390334010124,0.008075682446360588,0.03903110325336456,0.04428517818450928,-0.04247987270355225,-0.0472949743270874,2,0.6929244131971461,-0.004613524449746775,0.43999618729698,0.5711723407738533,-0.6150384545326233,-0.7874986529350281,-0.03966894745826721,-29.8428955078125,-36.38539123535156,20.516357421875,2
1596230232.372961,56,0,102564.5578746667,2.17653606135941,-1.513527754109061,0.9081798388338712,0.2375419288873672,0.03461754322052002,-0.1548361033201218,-0.1003754138946533,0.005278527736663818,-0.1217442154884338,2,0.6945357987769554,-0.00378968328320084,0.439036603967747,0.5699583355329363,-0.6141731739044189,-0.7883853316307068,-0.03521132469177246,-29.88738250732422,-36.38632965087891,20.54696655273438,2
1596230232.405973,57,0,102564.5879716667,2.184998843160558,-1.515329267478763,0.9143583331163631,0.1794964373111725,0.1271211802959442,-0.2118592411279678,-0.04273831844329834,0.07109689712524414,-0.02766585350036621,2,0.6950411490595354,0.0008565250906262811,0.4390644376923257,0.5693324797937336,-0.60936039686203,-0.7921711206436157,-0.03383413329720497,-29.88120269775391,-36.56340026855469,20.66558837890625,2
1596230232.433084,58,0,102564.6180696667,2.197245088561246,-1.523514448593117,0.9227851103454656,0.3249941468238831,0.1301750540733337,-0.330572783946991,-7.975101470947266e-05,0.04796040058135986,-0.05289441347122192,2,0.6969230953861303,0.005813504873969644,0.4373048703685269,0.5683562974306321,-0.6029274463653564,-0.797285795211792,-0.02852880395948887,-29.77305603027344,-36.589599609375,20.89059448242188,2
1596230232.466785,59,0,102564.6481666667,2.214102804549401,-1.528221468331502,0.9322013088088358,0.3877640962600708,0.3844456970691681,-0.2125363796949387,0.0216711163520813,-0.06457042694091797,-0.03226202726364136,2,0.6979445421427299,0.01372949489918474,0.4377754124267399,0.5666017114999411,-0.5955275893211365,-0.8029339909553528,-0.02536983415484428,-29.56865692138672,-36.61412048339844,21.05911254882812,2
1596230232.493241,60,0,102564.6782646667,2.236598038733384,-1.534658965373128,0.9374818232715741,0.4756643176078796,0.2943430840969086,-0.1668533533811569,-0.1053885221481323,0.08057612180709839,-0.05131816864013672,2,0.6991708477108712,0.02165761251259962,0.4403868909938956,0.5628058552087249,-0.5914332866668701,-0.8060703277587891,-0.02138214744627476,-29.82112121582031,-36.79719543457031,21.13784790039062,2
1596230232.530736,61,0,102564.7083626667,2.259445030060267,-1.547281198475224,0.9508231251701855,0.4578825235366821,0.1725908517837524,-0.7372947931289673,-0.3903740048408508,0.123112678527832,-0.04296916723251343,2,0.7015813094112694,0.0308705461708898,0.4386332951237104,0.5607420820905389,-0.5808529853820801,-0.8138940334320068,-0.01366135105490685,-29.56815338134766,-36.57515716552734,21.38284301757812,2
1596230232.553564,62,0,102564.7384596667,2.281178901548694,-1.551202124982357,0.9767734308288432,0.4028933644294739,0.7832654118537903,-0.8494833111763,-0.1932954788208008,0.057350754737854,0.08578383922576904,2,0.7016719452156761,0.04661973307890671,0.4360656047196313,0.5615425128272975,-0.559592068195343,-0.8286957740783691,-0.01096616312861443,-28.75460052490234,-36.65957641601562,21.73602294921875,2
1596230232.589732,63,0,102564.7685576667,2.303943443029461,-1.542924649898659,1.000044195766977,0.4880342781543732,0.8860673904418945,-0.6996116638183594,0.0440438985824585,0.04221713542938232,-0.001745820045471191,2,0.6987299646555325,0.06517947461256263,0.4388077530217878,0.5612270727875384,-0.5400552749633789,-0.8414948582649231,-0.01505614537745714,-28.45695495605469,-37.31790924072266,21.30398559570312,2
1596230232.613542,64,0,102564.7986546667,2.328651617978591,-1.542501790383091,1.020647920689478,0.390630692243576,0.5672697424888611,-0.6031944155693054,0.2303664088249207,-0.0701717734336853,0.0146329402923584,2,0.6971408939876174,0.08123526800737119,0.4400872416185634,0.5601060986321137,-0.5226048827171326,-0.8524469137191772,-0.01479081064462662,-28.43250274658203,-37.40678405761719,21.31744384765625,2
1596230232.64675,65,0,102564.8287526667,2.344326477845815,-1.538238641992955,1.030356859136744,0.1633723229169846,0.5545065999031067,0.02343848720192909,0.2991741299629211,-0.07564234733581543,0.1423649787902832,2,0.695187162005003,0.09132694498559751,0.4432280130688196,0.5585009146563054,-0.5142405033111572,-0.8574826717376709,-0.01674839854240417,-28.44264984130859,-37.41886138916016,21.19674682617188,2
1596230232.673844,66,0,102564.8588506667,2.352043587380183,-1.531263774128808,1.027014031683397,0.1167004406452179,0.3053472936153412,0.03429355472326279,0.02894794940948486,0.1170370578765869,0.141170859336853,2,0.6933946580290778,0.09476236584246361,0.4487351007947207,0.5557524336061797,-0.5169721841812134,-0.8557579517364502,-0.02044788375496864,-28.48027801513672,-37.41876983642578,20.9542236328125,2
1596230232.708453,67,0,102564.8889476667,2.353542596071079,-1.521668045938184,1.034156732447035,-0.01988079212605953,0.4965728223323822,-0.4795816540718079,-0.3270854949951172,0.1319147348403931,0.0598943829536438,2,0.6909040465882168,0.1004898452877287,0.4504732540672263,0.5564416429661598,-0.5106341242790222,-0.8594315648078918,-0.02510677836835384,-28.77815246582031,-37.47138214111328,20.68109130859375,2
1596230232.734095,68,0,102564.9190456667,2.357063848624266,-1.504013730035153,1.054357369675271,0.2537221908569336,0.7365154027938843,-0.8294317126274109,-0.206345796585083,0.1259384155273438,-0.01841229200363159,2,0.685978673593381,0.1138302722046264,0.4518461848871106,0.5588479395031065,-0.4926860630512238,-0.8695830702781677,-0.03295185789465904,-28.70668792724609,-37.81745910644531,20.37002563476562,2
1596230232.767527,69,0,102564.9491436667,2.365880988888619,-1.491692559270567,1.079775805524766,-0.05110735073685646,0.8037676215171814,-0.7081195712089539,0.1253421902656555,-0.1054617166519165,0.2186974883079529,2,0.6816379036148078,0.1293810598912689,0.4513164173306472,0.5611986353804421,-0.4700517952442169,-0.8818520903587341,-0.03726061806082726,-28.03407287597656,-38.49629974365234,20.16000366210938,2
1596230232.794234,70,0,102564.9792406667,2.345501100815767,-1.445105392489033,1.087730353768534,-0.3875360488891602,0.8173580765724182,0.04324131458997726,0.1143343150615692,-0.08774173259735107,0.1492679119110107,2,0.6720978390541343,0.1384550141141469,0.4590679493388766,0.5642440658646783,-0.4608323276042938,-0.8855749368667603,-0.05822940915822983,-27.918212890625,-38.61349487304688,19.55575561523438,2
1596230232.826659,71,0,102565.0093386667,2.327160037628278,-1.41556632114414,1.091118545790324,-0.175927922129631,0.1414208263158798,-0.5401840209960938,0.01361569762229919,0.14820796251297,0.06077539920806885,2,0.666474519397791,0.1419034713314248,0.4627836967760235,0.5670152591424735,-0.4559442102909088,-0.8871436715126038,-0.07135023921728134,-28.43372344970703,-39.08961486816406,18.35137939453125,2
1596230232.854537,72,0,102565.0394356667,2.296300723391418,-1.380110285896057,1.113037136711809,-0.4876461923122406,0.4295884072780609,-0.7431588768959045,0.1410967707633972,-0.001760005950927734,0.1677770018577576,2,0.660054163361083,0.1498251813335765,0.4592870809913182,0.5752706006108237,-0.4339286684989929,-0.8970450758934021,-0.08376183360815048,-27.93878936767578,-39.37288665771484,17.96926879882812,2
1596230232.888533,73,0,102565.0695336667,2.263917281968965,-1.338018104613101,1.119391927629161,-0.3324034810066223,0.3414630591869354,0.03951085358858109,-0.05094525218009949,-0.1111301183700562,-0.1332252025604248,2,0.6527321478919778,0.1537062479661424,0.4618478059349784,0.580527223158864,-0.4244644939899445,-0.8998353481292725,-0.1006302684545517,-27.25369262695312,-40.29517364501953,16.93930053710938,2
1596230232.914637,74,0,102565.0996316667,2.240399537095999,-1.299977333761545,1.120002338264653,-0.1560882180929184,0.904397189617157,-0.4198233783245087,-0.1531606912612915,0.1633708477020264,-0.1081445217132568,2,0.6457238190079378,0.1573658258747176,0.4671709275049769,0.583119253993861,-0.4198006987571716,-0.9001014828681946,-0.1165534928441048,-27.25960540771484,-40.36988830566406,16.5191650390625,2
1596230232.947547,75,0,102565.1297286667,2.241080316732064,-1.267953407090139,1.141538589300952,0.4026039838790894,1.152565479278564,-0.7783306241035461,-0.04850897192955017,0.06581127643585205,-0.08525776863098145,2,0.6382156522808954,0.1749819154156636,0.4711189654134569,0.5831887123421662,-0.3972560465335846,-0.9092749357223511,-0.1241242215037346,-27.15273284912109,-40.9456787109375,15.81015014648438,2
1596230232.975071,76,0,102565.1598266667,2.236807748091288,-1.230831564345613,1.158966545929617,-0.2029756903648376,1.012043118476868,-0.3313280940055847,0.1248692274093628,-0.05821782350540161,0.1391876935958862,2,0.6299060506979537,0.1909968930840475,0.4763169253372769,0.5829756784035089,-0.3773767352104187,-0.9163899421691895,-0.1334771066904068,-26.93385314941406,-41.15367889404297,15.3824462890625,2
1596230233.008658,77,0,102565.1899246667,2.217309150279001,-1.190409407424532,1.16466031339864,-0.002675554715096951,0.4361374974250793,-0.2894849181175232,0.2687297165393829,0.02259868383407593,-0.08958816528320312,2,0.62219278769762,0.1988383602363803,0.4815292930716179,0.5843536102527851,-0.3668242692947388,-0.918654203414917,-0.1466788798570633,-27.02204132080078,-41.38023376464844,14.2679443359375,2
1596230233.035076,78,0,102565.2200216667,2.217190694682258,-1.178937480813486,1.173157268002124,0.04689178988337517,0.3117256462574005,-0.1035114675760269,0.1497042179107666,-0.08111876249313354,-0.03289413452148438,2,0.6195795013458238,0.2053676297465152,0.4824331883339136,0.5841264095838778,-0.3578901290893555,-0.9219778180122375,-0.1478907614946365,-26.81072235107422,-41.72420501708984,13.9969482421875,2
1596230233.0687,79,0,102565.2501200417,2.202663772689272,-1.160611580675468,1.168233730810414,-0.3754494190216064,0.006843212060630322,0.06782072782516479,-0.04945001006126404,0.05751645565032959,0.02197837829589844,2,0.6165359771280027,0.2043699159520079,0.485371753396278,0.5852612879358374,-0.3592787086963654,-0.9200600385665894,-0.1562326550483704,-26.79354858398438,-41.84649658203125,13.82562255859375,2
1596230233.095199,80,0,102565.2802170417,2.186198378245644,-1.146994015936357,1.172481044526833,0.05999748036265373,0.01895043253898621,-0.4193018972873688,0.2011702656745911,0.1265926957130432,-0.01969069242477417,2,0.6150298732833025,0.2049078223297415,0.4834184743050361,0.5882667853327825,-0.3535526692867279,-0.9217157363891602,-0.1595020741224289,-26.58078002929688,-41.7103271484375,13.5709228515625,2
1596230233.127895,81,0,102565.3103150417,2.181622529901736,-1.144813532535264,1.176822544464922,-0.1819618940353394,-0.176124781370163,0.2151264548301697,0.1053990423679352,-0.1801199913024902,0.01929914951324463,2,0.6150946279379005,0.2057909000895944,0.4813930017642774,0.589550244824988,-0.3495563566684723,-0.9233909845352173,-0.1586174070835114,-26.38368225097656,-41.88027954101562,13.41079711914062,2
1596230233.15543,82,0,102565.3404130417,2.170640998345926,-1.142315630306754,1.163443634785541,-0.3186675608158112,-0.3752572238445282,0.2759058773517609,-0.07158839702606201,0.03344762325286865,-0.01913809776306152,2,0.6151947519295256,0.1980683968181921,0.4830736352597635,0.5907150591760815,-0.3603647649288177,-0.9181728363037109,-0.1646086573600769,-26.70819854736328,-41.94181823730469,13.32400512695312,2
1596230233.185501,83,0,102565.3705100417,2.155628062391342,-1.140625287111554,1.16181363114915,-0.08637303858995438,-0.3108570873737335,-0.310085117816925,-0.1166660189628601,0.1577310562133789,-0.05031383037567139,2,0.616201001246058,0.1933278844414522,0.4796525917907993,0.5940151119747421,-0.3614454567432404,-0.9175258278846741,-0.1658413112163544,-26.64411163330078,-42.0791015625,13.24105834960938,2
1596230233.215537,84,0,102565.4006080417,2.147920892740008,-1.134342492872899,1.169446106107399,0.08453548699617386,0.1803604662418365,-0.05708127468824387,0.08078375458717346,-0.09289717674255371,-0.004267573356628418,2,0.61572772105791,0.1957229376464293,0.4769225623293311,0.5959167980539083,-0.3540396988391876,-0.9205343723297119,-0.1651438176631927,-26.22502899169922,-41.96517181396484,13.38558959960938,2
1596230233.249482,85,0,102565.4307050417,2.151792442227709,-1.133557135717461,1.163121952898003,-0.1560019552707672,0.01228839345276356,0.2846668660640717,0.04210636019706726,-0.03594094514846802,-0.00530552864074707,2,0.6149250209665943,0.1947444443234326,0.480282666250319,0.5943656309806142,-0.3591768443584442,-0.9180453419685364,-0.1678836345672607,-26.47528076171875,-42.11895751953125,13.29037475585938,2
1596230233.276099,86,0,102565.4608030417,2.144653715266233,-1.133731240016142,1.161672871060488,-0.06040645018219948,-0.3771128952503204,-0.2463544011116028,0.02185779809951782,0.08479857444763184,-0.03613996505737305,2,0.615601219119868,0.1919455761998134,0.4785547638485572,0.5959677357655304,-0.3604110479354858,-0.91746985912323,-0.1683840751647949,-26.51725769042969,-41.98285675048828,13.41775512695312,2
1596230233.307261,87,0,102565.4909010417,2.134741019684099,-1.134609928992178,1.165819683478163,-0.09709271043539047,-0.1818398982286453,-0.02221294492483139,-0.01611325144767761,-0.04119217395782471,0.05333852767944336,2,0.6169223143697016,0.1902043988714097,0.4740330725155055,0.5987668394158387,-0.3571069836616516,-0.9191116094589233,-0.1664582937955856,-26.11953735351562,-42.07001495361328,13.50497436523438,2
1596230233.33605,88,0,102565.5209980417,2.129934722803264,-1.128455289874712,1.162518428984311,-0.007297633215785027,0.1582219749689102,0.09349942952394485,-0.03584989905357361,0.00622093677520752,-0.02940982580184937,2,0.6157803435693283,0.1893120511626182,0.4755186164955428,0.5990472957977961,-0.3588162958621979,-0.9178059101104736,-0.1699510365724564,-26.11140441894531,-42.06697845458984,13.45404052734375,2
1596230233.369856,89,0,102565.5510960417,2.131766658935707,-1.129448142616735,1.162420074233866,-0.09329827874898911,-0.1801852136850357,-0.07747600227594376,-0.01723998785018921,0.04229921102523804,0.0607372522354126,2,0.6158387966546544,0.1895414783595659,0.4757920138243877,0.5986974310563363,-0.359066367149353,-0.9177668690681458,-0.1696332097053528,-26.20525360107422,-42.01059722900391,13.24807739257812,2
1596230233.396333,90,0,102565.5811940417,2.113398315781264,-1.118075143361804,1.162099849381755,-0.2646589875221252,-0.06467710435390472,-0.04149193689227104,0.1352237462997437,-0.04779559373855591,0.092507004737854,2,0.6148542020421036,0.1871820899114844,0.4738773629180505,0.6019613487191694,-0.357378214597702,-0.9176396131515503,-0.173834353685379,-25.95183563232422,-42.42501831054688,13.12020874023438,2
1596230233.42826,91,0,102565.6112910417,2.109491956757163,-1.112649189082125,1.15640282889517,0.02758648619055748,0.1312409490346909,0.2970885932445526,-0.05862283706665039,-0.0112413763999939,-0.1783969402313232,2,0.6136518383803242,0.1854488368865971,0.4761415039652499,0.6019381555599606,-0.3611127436161041,-0.915360689163208,-0.1780803054571152,-26.09668731689453,-42.17284393310547,12.92169189453125,2
1596230233.456452,92,0,102565.6413890417,2.11883564069414,-1.117963901822525,1.153098387658502,-0.01670330762863159,0.109029084444046,-0.1157114207744598,-0.2316411733627319,0.1241082549095154,0.08839094638824463,2,0.6138920178533596,0.185461749391033,0.4783445162583998,0.5999393756549474,-0.3647721409797668,-0.9140251874923706,-0.1774810552597046,-26.27390289306641,-42.16562652587891,12.88037109375,2
1596230233.491562,93,0,102565.6714860417,2.10342053161043,-1.095559222279599,1.160359634459439,-0.04287448897957802,0.4153122305870056,-0.3254570066928864,-0.01265984773635864,-0.005743145942687988,0.08577895164489746,2,0.6103481607781537,0.1902412873503121,0.4783126088895724,0.6020801732711925,-0.3547934293746948,-0.9169466495513916,-0.1825667470693588,-26.23429107666016,-42.3609619140625,12.70126342773438,2
1596230233.516632,94,0,102565.7015840417,2.097479002482646,-1.077527708598047,1.161023463272245,-0.1203057914972305,0.3159462213516235,0.1854474991559982,0.1334262490272522,-0.07278138399124146,0.01720309257507324,2,0.6066275156053069,0.1941135512438011,0.4818038705907425,0.6018207206620974,-0.3509078621864319,-0.9172113537788391,-0.1886459738016129,-25.90065002441406,-42.41648101806641,12.34307861328125,2
1596230233.548467,95,0,102565.7316820417,2.092248604986139,-1.069386470504018,1.154522576598847,-0.1979067623615265,-0.0857403501868248,0.05060943588614464,0.08342376351356506,0.02099418640136719,0.01455497741699219,2,0.6047848041726521,0.1924996470246994,0.484714535905622,0.6018564420422328,-0.3545816540718079,-0.9146020412445068,-0.1943584531545639,-26.2935791015625,-42.49986267089844,12.1517333984375,2
1596230233.576814,96,0,102565.7617790417,2.0785948011344,-1.061563521235417,1.151167297214151,-0.2134846895933151,-0.1434415429830551,0.03007373213768005,0.06213945150375366,0.02092587947845459,-0.0236809253692627,2,0.6039846261438193,0.189451726432991,0.484002054188442,0.6041959210778243,-0.3557276725769043,-0.9132401347160339,-0.1986212283372879,-26.33621215820312,-42.47566223144531,11.89535522460938,2
1596230233.608748,97,0,102565.7918770417,2.072134582170888,-1.059017949972687,1.146517102064037,-0.0980411171913147,-0.064821757376194,0.1518242508172989,0.1446748673915863,-0.02230972051620483,-0.1059243083000183,2,0.6036699357932271,0.1864959822918977,0.4842576242493663,0.6052243460717336,-0.3589197099208832,-0.9113357067108154,-0.2016037106513977,-26.52423858642578,-42.55059051513672,11.64328002929688,2
1596230233.6371,98,0,102565.8219750417,2.077980436716232,-1.068303108344598,1.140111852677769,-0.003435309045016766,-0.2253566533327103,0.2640409469604492,0.01586997509002686,0.02056169509887695,-0.07712304592132568,2,0.6049568942857599,0.1830090236091385,0.4852000519231304,0.6042481959341537,-0.3658844828605652,-0.9086802005767822,-0.201069712638855,-26.55183410644531,-42.39447021484375,11.69833374023438,2
1596230233.669902,99,0,102565.8520720417,2.081109608939888,-1.076720228171859,1.135285117903585,-0.04748039692640305,-0.09471924602985382,0.03381148725748062,-0.09372207522392273,0.02983081340789795,-0.01099228858947754,2,0.6064025759314794,0.1795708032263571,0.4850858439921671,0.6039222249860368,-0.3714210093021393,-0.9066544771194458,-0.2000604867935181,-26.86201477050781,-42.35259246826172,11.66580200195312,2
1596230233.697407,100,0,102565.8821700417,2.079990372060823,-1.072525311884921,1.135314044304715,0.1142466366291046,0.2242081761360168,0.1272635161876678,-0.06122848391532898,0.03347486257553101,-0.06951689720153809,2,0.6054867954474915,0.1805094156291982,0.4860098462023309,0.6038182804512349,-0.3705553114414215,-0.9066666960716248,-0.2016041874885559,-26.93778228759766,-42.45443725585938,11.7620849609375,2
1596230233.731257,101,0,102565.9122670417,2.09194516112636,-1.073495169658632,1.136213191610619,0.3449651598930359,0.5400300025939941,-0.2079526633024216,-0.1104017198085785,0.04550141096115112,-0.01578629016876221,2,0.6046905491656818,0.1841777504233656,0.4890403967765393,0.601055296284477,-0.3700341880321503,-0.9070456624031067,-0.2008557915687561,-27.04282379150391,-42.13410186767578,11.7515869140625,2
1596230233.757436,102,0,102565.9423650417,2.091865971766981,-1.054905143587787,1.140412673976664,-0.2056549191474915,0.3080902397632599,0.16012242436409,0.1574881970882416,-0.04194819927215576,0.3196427822113037,2,0.6003993081252705,0.1913407711356401,0.4933238072577781,0.5996174745547368,-0.3629200160503387,-0.9088057279586792,-0.2058187574148178,-26.93355560302734,-42.12816619873047,11.8184814453125,2
1596230233.78832,103,0,102565.9724630417,2.096617326144063,-1.063469001306411,1.140484421195582,0.03518417105078697,-0.3034755289554596,-0.1273011416196823,-0.1111367046833038,0.1037732362747192,0.0241093635559082,2,0.6020605154360349,0.1902298856205945,0.4921512418555857,0.5992686065038371,-0.3646120727062225,-0.9088357090950012,-0.2026714533567429,-27.11271667480469,-42.3150634765625,11.45355224609375,2
1596230233.817597,104,0,102566.0025600417,2.085886598739359,-1.062612365181869,1.137785993599468,-0.197951465845108,-0.2134479880332947,0.1418115645647049,0.0654640793800354,-0.09126442670822144,0.05847179889678955,2,0.6026880606539415,0.1862226027789136,0.4900191832378744,0.6016391105968328,-0.3665798306465149,-0.9077067375183105,-0.2041764855384827,-27.14792633056641,-42.21448516845703,11.57574462890625,2
1596230233.848468,105,0,102566.0326580417,2.087707534374368,-1.066077436823912,1.131572730447981,-0.0525791198015213,0.06519690155982971,0.2506285607814789,0.03653785586357117,0.02503287792205811,0.03946596384048462,2,0.6029657958750714,0.1833524080727997,0.4914344431260747,0.6010877559679224,-0.3722145557403564,-0.905082106590271,-0.205628290772438,-27.25249481201172,-42.18326568603516,11.61489868164062,2
1596230233.877786,106,0,102566.0627560417,2.087170834790538,-1.062695099008111,1.12294324509188,-0.1551152169704437,0.1327077746391296,0.2258478254079819,0.04474684596061707,-0.03185194730758667,0.03301835060119629,2,0.6016106739537072,0.1809020403633562,0.4949394199808047,0.6003116228762782,-0.3783264756202698,-0.901378870010376,-0.2106781005859375,-27.39933013916016,-42.01767730712891,11.56234741210938,2
1596230233.907782,107,0,102566.0928530417,2.088695403068709,-1.058398465791771,1.117854028432105,-0.04080689698457718,0.2258221209049225,0.08961779624223709,-0.05964016914367676,0.05722612142562866,-0.04165703058242798,2,0.6000621159025215,0.1806971551385089,0.4982438740365938,0.5991887239000611,-0.3814111649990082,-0.8991634249687195,-0.2145479917526245,-27.95668792724609,-41.87149047851562,11.19390869140625,2
1596230233.937966,108,0,102566.1229510417,2.090943041527087,-1.052078624573525,1.115473783468815,0.01222728565335274,0.2506740093231201,0.1084415316581726,-0.001400262117385864,0.03802508115768433,-0.03431349992752075,2,0.5981152785466813,0.1823482049233479,0.5015357585347827,0.5978872057993327,-0.3819050788879395,-0.8981192111968994,-0.2180144935846329,-28.21794891357422,-41.7989501953125,11.14163208007812,2
1596230233.968019,109,0,102566.1530480417,2.091653000557523,-1.050356146381136,1.112495158728779,-0.072792649269104,-0.09205660969018936,0.02704364433884621,-0.03086388111114502,0.01577341556549072,-0.01327192783355713,2,0.597411525678881,0.181930854382338,0.5031699722981166,0.5973446115192359,-0.383848249912262,-0.8968054056167603,-0.2200012654066086,-28.21894073486328,-41.68798065185547,10.93460083007812,2
1596230233.998233,110,0,102566.1831460417,2.088665038890825,-1.050871659952928,1.112512417961704,0.003138354048132896,-0.07945385575294495,-0.07360967993736267,0.02119353413581848,0.03105497360229492,-0.004355311393737793,2,0.5978133055296693,0.1808905487181124,0.5021177143978905,0.5981435414545963,-0.3839482665061951,-0.8968130350112915,-0.2197957187891006,-28.00531768798828,-41.74618530273438,10.7457275390625,2
1596230234.028133,111,0,102566.2132440417,2.087518636919432,-1.05066483346778,1.114192642177717,0.02753291092813015,-0.005857813637703657,-0.03862052783370018,0.01541191339492798,0.004463434219360352,0.006715178489685059,2,0.5979829643521604,0.181254991119598,0.5013248491862085,0.5985286328796527,-0.3825948238372803,-0.8975551128387451,-0.2191260010004044,-27.864990234375,-41.8218994140625,10.98654174804688,2
1596230234.06005,112,0,102566.2433410417,2.087615384883723,-1.052312243187472,1.114606517288901,-0.001327291131019592,-0.08136822283267975,-0.009089929983019829,0.0007253885269165039,0.0008645057678222656,0.02313125133514404,2,0.598415875850229,0.1809499168539344,0.500734751608106,0.5986820550980877,-0.382632315158844,-0.8977375030517578,-0.2183111310005188,-27.80300903320312,-41.79129791259766,10.96392822265625,2
1596230234.088357,113,0,102566.273439125,2.087682422000127,-1.053178915824036,1.11415799515125,0.0363236702978611,0.03396083042025566,0.03735344856977463,0.03778615593910217,-0.008552372455596924,0.02311944961547852,2,0.5985954776788069,0.1805381830450395,0.5006323678374055,0.5987126102378266,-0.383171558380127,-0.8975398540496826,-0.2181788384914398,-27.95124053955078,-41.71831512451172,11.07098388671875,2
1596230234.118936,114,0,102566.303537125,2.092930283301274,-1.056308381850339,1.114786644132832,0.0713857039809227,0.0430082380771637,0.01462695747613907,-0.01004111766815186,0.03295791149139404,-0.0497441291809082,2,0.5989476291156617,0.1814146950969491,0.5010734592436873,0.5977256110875508,-0.3833611011505127,-0.8978168368339539,-0.2167008966207504,-27.86615753173828,-41.72702789306641,11.07205200195312,2
1596230234.148602,115,0,102566.333634125,2.095920832576673,-1.058536508704008,1.113601590019286,-0.00871987733989954,-0.004956721793860197,0.07445120066404343,-0.003119826316833496,-0.007656335830688477,-0.01353752613067627,2,0.5991548375998771,0.181189877187045,0.50166037213825,0.5970934006646597,-0.3847699165344238,-0.8972943425178528,-0.2163674235343933,-28.13269805908203,-41.71339416503906,10.98403930664062,2
1596230234.178768,116,0,102566.363732125,2.100122182560676,-1.061486224335342,1.112624832867372,0.0404517874121666,0.07510732114315033,0.04432471096515656,-0.001439511775970459,0.02997708320617676,-0.008960962295532227,2,0.5994492998352123,0.181193531177937,0.502327490281092,0.5962353927092672,-0.3861717283725739,-0.8968627452850342,-0.215658888220787,-28.24845886230469,-41.61850738525391,11.31814575195312,2
1596230234.208732,117,0,102566.393829125,2.099119200969874,-1.058051966889294,1.112202619730017,-0.076589435338974,0.08191633224487305,-0.02713287249207497,-0.03699898719787598,0.04034721851348877,0.0278632640838623,2,0.598648879370604,0.181754672051662,0.5031856192764181,0.596145154976145,-0.3857586681842804,-0.8966759443283081,-0.2171695232391357,-28.27472686767578,-41.62554168701172,11.14102172851562,2
