loggingTime,loggingSample,identifierForVendor,motionTimestamp_sinceReboot,motionYaw,motionRoll,motionPitch,motionRotationRateX,motionRotationRateY,motionRotationRateZ,motionUserAccelerationX,motionUserAccelerationY,motionUserAccelerationZ,motionAttitudeReferenceFrame,motionQuaternionX,motionQuaternionY,motionQuaternionZ,motionQuaternionW,motionGravityX,motionGravityY,motionGravityZ,motionMagneticFieldX,motionMagneticFieldY,motionMagneticFieldZ,motionMagneticFieldCalibrationAccuracy
1596230005.385108,1,0,102337.553286875,-0.569193532277522,0.4989529614778697,1.329942735137687,-0.2263317704200745,0.3030825853347778,-0.1803907603025436,-0.08076193928718567,0.02611076831817627,0.03082025051116943,2,0.628433548117844,0.01859389372491943,-0.06789160891401647,0.7746717705224277,0.1141390576958656,-0.9711347222328186,-0.2094510793685913,-9.15570068359375,-49.16475677490234,9.057281494140625,2
1596230005.399457,2,0,102337.583384875,-0.577523318148675,0.5135975589442271,1.325502803031414,0.03137333691120148,0.09505005925893784,-0.04615750536322594,0.02147945761680603,-0.03582406044006348,-0.03635305166244507,2,0.6274874664133897,0.02246063629928283,-0.0673158080463801,0.7753860044903653,0.1193109750747681,-0.9700660705566406,-0.2115100026130676,-8.910713195800781,-49.43210601806641,8.807708740234375,2
1596230005.429315,3,0,102337.613482875,-0.5757470674871251,0.5111094689940229,1.327244713481224,0.04385557398200035,-0.1467220932245255,0.06450828909873962,0.09172901511192322,0.03934073448181152,-0.03766852617263794,2,0.6279820046308809,0.02173479327665054,-0.06709410675228261,0.7750255329893156,0.1179578229784966,-0.9704875946044922,-0.2103324085474014,-9.050643920898438,-49.19260406494141,8.80596923828125,2
1596230005.459459,4,0,102337.643580875,-0.5769174877630282,0.5084961960324523,1.328525707760824,0.02963518351316452,-0.04590465128421783,-0.03498715907335281,-0.04874721169471741,-0.01294434070587158,0.01912903785705566,2,0.6283457649775377,0.02012050872739157,-0.06813778697058948,0.7746830864290523,0.1168022155761719,-0.970795750617981,-0.209553524851799,-9.139419555664062,-49.38298034667969,8.86834716796875,2
1596230005.489497,5,0,102337.673677875,-0.5842250088947398,0.5160677053807305,1.329042951398614,0.07357849925756454,0.03261348605155945,-0.03710811585187912,-0.03043228387832642,0.02186459302902222,0.01110124588012695,2,0.6288558572795899,0.02066067695645377,-0.06849423968085144,0.77422350724057,0.1181379705667496,-0.9709197282791138,-0.2082268893718719,-8.81256103515625,-49.04497528076172,8.99871826171875,2
1596230005.519687,6,0,102337.703775875,-0.5883978349234783,0.5213911346819515,1.330176372516855,0.01402247790247202,0.05053847283124924,0.03810945525765419,2.297759056091309e-05,-0.004578769207000732,-0.004362344741821289,2,0.6294685110586641,0.02119754635902027,-0.06822716738573559,0.7737344310413982,0.1186962500214577,-0.9711904525756836,-0.2066401094198227,-8.919540405273438,-49.09644317626953,9.11553955078125,2
1596230005.549645,7,0,102337.733873875,-0.5891020320213538,0.5245105502740931,1.33355191305254,0.2606515884399414,0.08577851951122284,0.0384349562227726,-0.03425890207290649,-0.007370233535766602,-0.04399210214614868,2,0.6307300302705198,0.0215518946443477,-0.06689613522143695,0.7728130312791109,0.1176979765295982,-0.9719892740249634,-0.2034302949905396,-8.976402282714844,-49.32696533203125,8.9366455078125,2
1596230005.579832,8,0,102337.763971875,-0.6141162305090362,0.5497736195118068,1.338245018029938,0.1010913923382759,0.09663287550210953,-0.2518922090530396,-0.2267397046089172,-0.02094244956970215,0.03654021024703979,2,0.6334377505908676,0.02249900956218839,-0.06768109738841444,0.7704996269207469,0.1204144805669785,-0.9730815887451172,-0.1965008229017258,-8.962371826171875,-49.32244873046875,9.385528564453125,2
1596230005.609899,9,0,102337.794069875,-0.6469119239063954,0.5872599777948529,1.337793427197253,0.2112904191017151,0.08630336821079254,-0.1633124947547913,0.03773066401481628,0.04940205812454224,-0.1277607679367065,2,0.6349674947768288,0.02661761004305832,-0.06850577820993353,0.7690349038848757,0.1279376298189163,-0.9729773998260498,-0.1922155618667603,-8.763046264648438,-49.30625915527344,9.402679443359375,2
1596230005.640074,10,0,102337.824167875,-0.6671344966991305,0.6080931374022541,1.342642786096583,0.2165799885988235,0.06701767444610596,-0.01508814096450806,-0.00886911153793335,0.0312688946723938,-0.000672459602355957,2,0.6375299122162599,0.02717819237184388,-0.06864937173686814,0.76687948212027,0.1292168498039246,-0.9740856885910034,-0.1856339126825333,-8.631416320800781,-49.19425964355469,9.7606201171875,2
1596230005.671378,11,0,102337.854265875,-0.6954960443846461,0.6353458264223695,1.348395754004069,0.414664626121521,0.02732406929135323,-0.2579837143421173,0.02725234627723694,0.04456466436386108,-0.1469923257827759,2,0.6406939614071666,0.02731382023995485,-0.06957739482930159,0.7641492426221024,0.1308993101119995,-0.9753707647323608,-0.1775304079055786,-8.418045043945312,-49.03633880615234,10.24105834960938,2
1596230005.700204,12,0,102337.884363875,-0.7399281437680533,0.6836451937647774,1.358261748384866,0.3847697973251343,0.255113422870636,0.1107382252812386,-0.02015715837478638,0.0763850212097168,-0.03916651010513306,2,0.6460491018466435,0.02920555637219893,-0.06877388444897548,0.759630012768937,0.133233442902565,-0.9774994254112244,-0.1635351926088333,-8.234977722167969,-48.9794921875,10.72012329101562,2
1596230005.730239,13,0,102337.914461875,-0.7837643544209145,0.7332351558142923,1.365613297497275,0.4687454700469971,0.08229227364063263,-0.2847617268562317,-0.06026953458786011,0.0400272011756897,-0.174801230430603,2,0.6506001561208431,0.03204096326805261,-0.06757888112647709,0.7557286030526025,0.1363622099161148,-0.9790236949920654,-0.1513856202363968,-8.450111389160156,-48.84674072265625,11.476318359375,2
1596230005.76046,14,0,102337.944559875,-0.8717980476450171,0.8229391831391649,1.370106921553447,0.5630300045013428,0.2325008362531662,-0.2621179223060608,-0.04034209251403809,0.07074540853500366,-0.07506275177001953,2,0.6564498530069365,0.03590842676536915,-0.07027965387274682,0.7502299226421472,0.1461492925882339,-0.9799293875694275,-0.1355683505535126,-8.263763427734375,-48.52976226806641,12.37112426757812,2
1596230005.790497,15,0,102337.974656875,-0.9626215611543841,0.9242246756793623,1.377139555242317,0.6066529750823975,0.5996189117431641,-0.1898841857910156,-0.05747875571250916,0.09069627523422241,-0.005339086055755615,2,0.6635356322611881,0.04183216233245876,-0.06885402846162159,0.7437940292577111,0.1536032259464264,-0.9813070297241211,-0.1159410700201988,-7.979843139648438,-48.60576629638672,12.8087158203125,2
1596230005.820945,16,0,102338.004754875,-1.055149294991202,1.036045777303272,1.379640548624736,0.5549774765968323,0.7506508231163025,-0.3197214901447296,-0.04426959156990051,0.06043410301208496,0.1323937177658081,2,0.6700133853376656,0.05166304052379631,-0.06510940817214356,0.7376813821215324,0.1634700745344162,-0.9817852973937988,-0.0968259871006012,-7.664497375488281,-48.64031982421875,13.65557861328125,2
1596230005.850701,17,0,102338.034852875,-1.163590071418835,1.159986675320597,1.381068110712745,0.5699114799499512,0.3200440406799316,-0.1527895927429199,0.1456967294216156,-0.02304756641387939,0.07355982065200806,2,0.6772890201658478,0.06018557334074237,-0.06272210142248824,0.7305636363975023,0.1729007661342621,-0.9820555448532104,-0.07531455904245377,-7.685356140136719,-48.53040313720703,14.12689208984375,2
1596230005.880853,18,0,102338.0649496667,-1.203057416016577,1.202186999315893,1.385522725719697,0.2119777798652649,-0.1272701621055603,0.2214168012142181,0.01125738024711609,-0.107151210308075,-0.1659682393074036,2,0.6805328998246917,0.06072041565639913,-0.06133325432682118,0.7276167305938414,0.1718409806489944,-0.9828858971595764,-0.06637600809335709,-7.783058166503906,-48.16619873046875,14.72525024414062,2
1596230005.911289,19,0,102338.0950476667,-1.274663603518477,1.273199858087521,1.389694443226314,0.4806915819644928,0.1143698245286942,-0.3863915205001831,-0.2247588932514191,0.05461442470550537,0.02577686309814453,2,0.6855052703242768,0.06062917182435659,-0.06165995581654632,0.7229139241045816,0.1721957921981812,-0.9836457967758179,-0.05281325429677963,-7.804206848144531,-48.04127502441406,15.27392578125,2
1596230005.941103,20,0,102338.1251456667,-1.359011879227629,1.36441742063424,1.375783261494258,0.4119421541690826,0.3118765950202942,-0.5408753752708435,0.07449108362197876,0.00344085693359375,0.1100450158119202,2,0.68945735369556,0.06924092769311643,-0.06543679267463498,0.7180334947483313,0.189666360616684,-0.981045126914978,-0.03970850259065628,-7.177299499511719,-47.83621978759766,15.98480224609375,2
1596230005.971338,21,0,102338.1552436667,-1.412231539516777,1.416856718764893,1.371158529528199,0.1948752254247665,-0.2148353159427643,0.03551165387034416,0.1555367708206177,-0.101161777973175,-0.02512800693511963,2,0.6926194796476801,0.07123400289802961,-0.06797978984364456,0.7145506633190546,0.1959688663482666,-0.9801384806632996,-0.03040794655680656,-6.74951171875,-47.53533172607422,16.29962158203125,2
1596230006.001266,22,0,102338.1853416667,-1.45311711168134,1.447736761087169,1.369298496660224,0.2221234291791916,-0.487868070602417,-0.2623429298400879,0.09754908084869385,0.0008642077445983887,-0.0476951003074646,2,0.6949786405089559,0.06871238500147436,-0.07249757091079528,0.71205847919175,0.19862300157547,-0.979767918586731,-0.02456659451127052,-6.416740417480469,-47.44020080566406,16.54571533203125,2
1596230006.0311,23,0,102338.2154386667,-1.481119599435766,1.462736406176055,1.362755829706419,0.2866876125335693,-0.135185107588768,-0.1796798259019852,-0.03231862187385559,0.021564781665802,0.1943221092224121,2,0.6960078247734975,0.06659806905380267,-0.07952650571078196,0.710502168818826,0.2053382843732834,-0.9784375429153442,-0.02227560989558697,-6.159149169921875,-47.80368041992188,16.90728759765625,2
1596230006.061433,24,0,102338.2455366667,-1.526836810678187,1.508598711040821,1.359308862590829,0.2379390001296997,0.02510815858840942,-0.0888226330280304,0.06623810529708862,0.03859859704971313,0.08150029182434082,2,0.6991683357481722,0.06811573713645194,-0.08093980906200715,0.7070874460343607,0.2095086723566055,-0.977719783782959,-0.01304776966571808,-5.678825378417969,-47.41722869873047,17.52615356445312,2
1596230006.091458,25,0,102338.2756346667,-1.575916442606066,1.54904776063195,1.361112961670772,0.4420502185821533,-0.553975522518158,0.1754449456930161,0.0551985502243042,-0.004460453987121582,-0.1745114326477051,2,0.7025454813216389,0.06454877716043583,-0.08344291479661731,0.7037758934378124,0.2081006318330765,-0.9780968427658081,-0.00452660396695137,-5.789962768554688,-47.27861785888672,17.78756713867188,2
1596230006.121616,26,0,102338.3057326667,-1.634774606276856,1.581695442099513,1.363953249133385,0.3698469698429108,-0.8254590034484863,-0.09317769110202789,-0.04028910398483276,0.07232165336608887,-0.08621335029602051,2,0.7058132476259347,0.05428459660011747,-0.09161230364224088,0.7003484342090205,0.205358624458313,-0.97868412733078,0.002238315995782614,-5.514976501464844,-47.28280639648438,18.40338134765625,2
1596230006.151906,27,0,102338.3358306667,-1.672476623457997,1.60016952207827,1.3591873907286,0.2327693849802017,-0.4854893684387207,-0.0735182985663414,-0.1314210593700409,0.05433559417724609,0.1140727996826172,2,0.7075828529253239,0.04909916266543982,-0.09993100954626613,0.6978033060150737,0.2099420577287674,-0.9776942729949951,0.006168443243950605,-5.102897644042969,-46.98597717285156,18.84063720703125,2
1596230006.184242,28,0,102338.3659286667,-1.714103458070362,1.635727976987885,1.358855853199763,0.270182192325592,-0.005817468278110027,-0.0387086383998394,-0.2275678813457489,-0.05868029594421387,0.1241304874420166,2,0.7103736163754715,0.04683929215743909,-0.1019341310888704,0.694827049476182,0.209913045167923,-0.9776245355606079,0.01364918798208237,-4.690467834472656,-46.69676971435547,19.36129760742188,2
1596230006.211819,29,0,102338.3960266667,-1.729727334305059,1.65388961084863,1.348355205463084,0.1488600969314575,0.1984700411558151,-0.6217800974845886,-0.08436447381973267,0.02381926774978638,-0.02640604972839355,2,0.7117068836737415,0.05126835352591544,-0.1045496243726949,0.692758503520024,0.219850555062294,-0.9753618240356445,0.01831026375293732,-4.523719787597656,-46.56277465820312,19.48739624023438,2
1596230006.242062,30,0,102338.4261246667,-1.734439204609159,1.666525301345632,1.333551719013619,-0.0499647855758667,0.1341695040464401,-0.2043180465698242,0.1204335391521454,-0.01565492153167725,-0.01633405685424805,2,0.7125548918061012,0.05914123627135326,-0.1068169767954163,0.6909108604479497,0.2339485585689545,-0.9719892740249634,0.022464320063591,-3.884605407714844,-46.52992248535156,19.90151977539062,2
1596230006.272118,31,0,102338.4562216667,-1.725417217213156,1.65732093571133,1.333614623008821,-0.08702230453491211,-0.1510823220014572,0.03599227592349052,0.05114206671714783,-0.05346691608428955,-0.07894909381866455,2,0.7117960483893977,0.05915075771657355,-0.1069546667608805,0.6916706928900631,0.2340855151414871,-0.9720040559768677,0.02030485309660435,-3.688758850097656,-46.57398223876953,19.550048828125,2
1596230006.302145,32,0,102338.4863196667,-1.72218224213431,1.648514235518848,1.328363962861976,0.09469467401504517,-0.179020032286644,-0.3780832290649414,0.02776536345481873,0.1270471215248108,0.02469885349273682,2,0.7112152716994504,0.05909421311383642,-0.1107914439094144,0.6916690545489045,0.2393404096364975,-0.9707569479942322,0.01863857731223106,-3.629928588867188,-46.54681396484375,19.94583129882812,2
1596230006.334039,33,0,102338.5164176667,-1.736847938949691,1.654136935292503,1.319363238921474,0.02813774161040783,-0.3856736719608307,-0.05573762580752373,0.08015859127044678,-0.04798769950866699,0.1327974796295166,2,0.7119535907916963,0.05896858598315741,-0.1169759856453209,0.6898993873416792,0.247927725315094,-0.9685568809509277,0.02071041986346245,-2.8585205078125,-46.46034240722656,20.01507568359375,2
1596230006.362396,34,0,102338.5465156667,-1.726725016646916,1.63800757842031,1.322704956021923,-0.1211896017193794,-0.01247712038457394,0.1256912350654602,-0.1358524858951569,-0.06453061103820801,0.1786688566207886,2,0.7107241663357879,0.05582952698460306,-0.1180597854938897,0.691242362046688,0.2449993491172791,-0.9693828821182251,0.01649155281484127,-2.668800354003906,-46.63397979736328,20.02178955078125,2
1596230006.39271,35,0,102338.5766136667,-1.719131608751867,1.634952682109255,1.321153336206316,-0.01390764024108648,0.2527280449867249,-0.2171730846166611,-0.1009695529937744,0.09923607110977173,0.07137382030487061,2,0.710319629234948,0.05801493213161557,-0.1170578788980605,0.6916484177423818,0.2465488910675049,-0.9690006971359253,0.01583941653370857,-2.951309204101562,-46.501220703125,19.658447265625,2
1596230006.422673,36,0,102338.6067116667,-1.714389850161083,1.636845546198849,1.315431983176284,-0.06503945589065552,0.1233450695872307,-0.1011971458792686,0.009425491094589233,-0.01958316564559937,0.06673085689544678,2,0.7102444490202549,0.06235936346789547,-0.1167314869799107,0.6914027496188495,0.2520466446876526,-0.9675713181495667,0.01667173579335213,-2.807655334472656,-46.5654296875,19.83444213867188,2
1596230006.452633,37,0,102338.6368096667,-1.705098114708713,1.629674452853797,1.314325493634957,-0.05527906119823456,0.09530773758888245,-0.03152861446142197,0.03193932771682739,0.04702752828598022,-0.01795709133148193,2,0.7095230101676153,0.06356532899751632,-0.1164474684200436,0.6920813472024522,0.2532290816307068,-0.9672912359237671,0.01492690574377775,-2.81640625,-46.74078369140625,19.53793334960938,2
1596230006.484812,38,0,102338.6669076667,-1.695317339054549,1.625485012167061,1.310663564549345,-0.1761809587478638,0.1476485133171082,-0.229600727558136,0.04567557573318481,0.007062911987304688,0.07416963577270508,2,0.708913530498217,0.06686781610165132,-0.115819689697429,0.6924998721351794,0.2568241953849792,-0.9663558602333069,0.01405939739197493,-2.589035034179688,-46.65680694580078,19.50051879882812,2
1596230006.512955,39,0,102338.6970046667,-1.662465476149471,1.594113185592608,1.305007734944656,-0.3587805032730103,-0.1306480169296265,-0.08665268123149872,0.06371855735778809,-0.0729028582572937,0.07937335968017578,2,0.7058464121068783,0.06959085928295328,-0.1174877335729166,0.695078836658049,0.2625988721847534,-0.9648856520652771,0.006124090403318405,-2.512046813964844,-46.79484558105469,19.12725830078125,2
1596230006.543001,40,0,102338.7271026667,-1.605769011730502,1.534596013388064,1.304670871537089,-0.5629032850265503,-0.2477127313613892,-0.02717328630387783,-0.02102717757225037,0.02612829208374023,0.01478219032287598,2,0.700354778070292,0.06887644947490226,-0.1187479528088843,0.7004699818075873,0.2628231644630432,-0.9647971391677856,-0.009518438950181007,-2.385833740234375,-46.92389678955078,18.6370849609375,2
1596230006.573267,41,0,102338.7572006667,-1.555675037721063,1.478297421816109,1.297715733485247,-0.5066376924514771,-0.213127464056015,-0.3776469528675079,-0.1606466770172119,-0.02324998378753662,0.1159230470657349,2,0.6948247563063465,0.06901378100530636,-0.123205262549988,0.705178065830846,0.2685461342334747,-0.9629446268081665,-0.02491131238639355,-1.81182861328125,-47.38625335693359,17.7847900390625,2
1596230006.603214,42,0,102338.7872986667,-1.468059212433898,1.394021381263692,1.278514330991922,-1.251915574073792,0.1499281972646713,-0.6441181898117065,-0.1780876517295837,-0.04506564140319824,0.4352113008499146,2,0.6847461573153125,0.07607450695756443,-0.1278572719020664,0.7134338664602744,0.2836478054523468,-0.9575888514518738,-0.05067073926329613,-1.47967529296875,-47.36582183837891,17.27450561523438,2
1596230006.634088,43,0,102338.8173966667,-1.35180400940434,1.293468945925601,1.251220202576934,-1.429239749908447,0.647665798664093,-0.5152295827865601,0.02672266960144043,0.03862959146499634,0.5489255785942078,2,0.6701679823125696,0.08870158141941728,-0.1294194545266509,0.7254360967537641,0.3021602034568787,-0.9493686556816101,-0.08601380884647369,-0.6668014526367188,-48.11483764648438,15.40789794921875,2
1596230006.663377,44,0,102338.8474946667,-1.213739682226275,1.179186997223764,1.220634928750771,-2.188550233840942,0.4917777180671692,-0.4448749721050262,0.02989849448204041,-0.28407222032547,0.3628975749015808,2,0.6511559602250674,0.1026110381948867,-0.1266687697719026,0.7412299391299599,0.3170790076255798,-0.9393173456192017,-0.1309337764978409,-0.3268508911132812,-48.58849334716797,14.0384521484375,2
1596230006.693384,45,0,102338.8775926667,-1.058830764451794,1.061682752927885,1.182407365324601,-1.94472336769104,1.466460824012756,-0.219052642583847,-0.05893349647521973,0.1658274531364441,0.2388584017753601,2,0.6271365026490188,0.1200436128044268,-0.1180648594526642,0.7604933041063113,0.3306702971458435,-0.9255203604698181,-0.1845786720514297,-0.02040863037109375,-49.53470611572266,9.88397216796875,2
1596230006.723543,46,0,102338.9076896667,-0.9538403658900515,1.016666626311783,1.153674204582932,-1.451254487037659,1.659966468811035,-0.004422533325850964,0.1981926560401917,0.5420180559158325,0.0877004861831665,2,0.6105296550342625,0.1437458457237158,-0.100290812438417,0.7723551262335306,0.344506710767746,-0.9142586588859558,-0.213181346654892,-0.0627593994140625,-49.84009552001953,6.8665771484375,2
1596230006.75361,47,0,102338.9377876667,-0.8778497197056361,0.984192398187216,1.138389497797683,-0.9942858219146729,0.5237346887588501,0.2331506162881851,0.3887209594249725,-0.02682006359100342,-0.4502714872360229,2,0.5991068550976716,0.1583960214484683,-0.08498563598825987,0.7802302264247507,0.3490016758441925,-0.9079597592353821,-0.2319633513689041,-0.3996505737304688,-50.00620269775391,5.666961669921875,2
1596230006.783717,48,0,102338.9678856667,-0.8018616395857746,0.9244421955866153,1.125181442541502,-1.170978426933289,0.4444166123867035,0.356741189956665,0.1885940432548523,-0.1047288775444031,-0.09559804201126099,2,0.5867643982610564,0.1609733460246306,-0.07649129382608555,0.789901308578724,0.3440708518028259,-0.9023458361625671,-0.2595902383327484,-0.8051223754882812,-50.459716796875,3.59112548828125,2
1596230006.813818,49,0,102338.9979836667,-0.7213036495865345,0.8831434591171377,1.118665038756554,-1.021631121635437,1.661805868148804,0.6994861364364624,-0.09027543663978577,0.183650016784668,0.2163876295089722,2,0.5766890637306685,0.169644470847247,-0.05823988438008565,0.797031041228504,0.3375964164733887,-0.8995180130004883,-0.2773009538650513,-1.384529113769531,-50.30021667480469,2.794158935546875,2
1596230006.844,50,0,102339.0280816667,-0.6431839761456225,0.8715176945166392,1.10623226514068,-1.154925465583801,1.898622870445251,-0.01257891766726971,-0.18556809425354,0.07578003406524658,0.1395149827003479,2,0.5653548848412374,0.1902158897424526,-0.03343679109939068,0.8019187660823985,0.3428826928138733,-0.8940169811248779,-0.2883835434913635,-2.4246826171875,-50.39868927001953,0.401885986328125,2
1596230006.87425,51,0,102339.05817975,-0.5923758775583861,0.8758767382738265,1.082547907572438,-1.06697952747345,1.39216673374176,0.0344674289226532,-0.1221676468849182,0.0337364673614502,-0.2812822461128235,2,0.5523706174885656,0.2114361782037457,-0.01756550602889129,0.8061469805445474,0.360302597284317,-0.8831558227539062,-0.3003628849983215,-2.429290771484375,-50.30907440185547,-0.71038818359375,2
1596230006.90422,52,0,102339.08827775,-0.5451236150088076,0.8727468584959456,1.068667527595669,-0.6250574588775635,1.468467116355896,0.06690767407417297,-0.07655692100524902,0.1151866912841797,-0.4341579079627991,2,0.5424252250095459,0.2260654831967275,-0.002666126299243343,0.8091119026552184,0.3687168955802917,-0.8765599727630615,-0.3093385398387909,-2.300735473632812,-50.22946929931641,-2.34954833984375,2
1596230006.934111,53,0,102339.11837475,-0.521997023006938,0.9092592527641958,1.059546151651776,-0.5205726027488708,2.273808479309082,-0.181479424238205,-0.07026484608650208,0.1600475907325745,-0.003299057483673096,2,0.5364135543262684,0.2489465691454784,0.01433854257404138,0.8062757268021672,0.3860563635826111,-0.8721334934234619,-0.3005722165107727,-2.220779418945312,-50.22903442382812,-2.83050537109375,2
1596230006.964445,54,0,102339.14847275,-0.5096293579393159,0.9501376738248003,1.039508621256928,-0.303734302520752,0.7731249928474426,-0.2533790767192841,0.7261791229248047,0.02403479814529419,-0.6227349638938904,2,0.5274744065283594,0.2728478714835049,0.02528846569423882,0.8041675185461679,0.4121527671813965,-0.8621553778648376,-0.2946495711803436,-1.605270385742188,-50.13785552978516,-3.876220703125,2
1596230006.99445,55,0,102339.17857075,-0.4856871745644803,0.9203291402649233,1.050347866755286,-0.04922399669885635,-1.059123754501343,1.0237877368927,0.2802551984786987,-0.1850203275680542,-0.3835974931716919,2,0.5284283292321792,0.2649542011193912,0.02970447616610439,0.8060275754573309,0.3957274258136749,-0.8675962686538696,-0.301125556230545,-1.677413940429688,-50.06250762939453,-4.303466796875,2
1596230007.024535,56,0,102339.20866875,-0.4659447417329357,0.8786156690747947,1.061600305888639,-0.01931207999587059,-0.3359363675117493,-0.2340207993984222,-0.4122701585292816,0.0806809663772583,-0.0544121265411377,2,0.5304596474225883,0.2511072670703084,0.0292892128169786,0.8091352901595874,0.3752860128879547,-0.8731366991996765,-0.3111154139041901,-3.034210205078125,-49.98908996582031,-4.311370849609375,2
1596230007.054529,57,0,102339.23876675,-0.4849128210573322,0.8974503240897437,1.053214975995881,0.2313892692327499,0.6078517436981201,-0.1867536306381226,-0.1349872350692749,0.1493985056877136,-0.002861499786376953,2,0.5296440272078857,0.2553500173704831,0.02464883262070128,0.808496098580212,0.3867887854576111,-0.8690184354782104,-0.3085471391677856,-2.742813110351562,-49.95533752441406,-4.401214599609375,2
1596230007.084725,58,0,102339.26886475,-0.4890246146693689,0.9201717114806131,1.060498019844847,0.04838402569293976,0.167940616607666,0.2019701898097992,-0.1051681339740753,0.1375702023506165,0.005605638027191162,2,0.5324092374583713,0.2619564879881499,0.03076121312288377,0.8043461525270336,0.3886522650718689,-0.8725988268852234,-0.2958384156227112,-2.460350036621094,-50.18180847167969,-3.8421630859375,2
1596230007.114791,59,0,102339.29896275,-0.5010733078794548,0.9200995556831491,1.056934755449007,0.08764489740133286,-0.7766034007072449,-0.5613941550254822,-0.1534125506877899,-0.2196224927902222,-0.05097603797912598,2,0.5327426362314285,0.259443937333723,0.02503431089413727,0.805138180509466,0.3911027610301971,-0.8708528876304626,-0.2977482676506042,-2.612968444824219,-50.17501068115234,-3.860565185546875,2
1596230007.144817,60,0,102339.32905975,-0.5217827812659862,0.9079180577539356,1.043450373547459,-0.03513925895094872,-1.077581763267517,-0.530132532119751,-0.04252070188522339,0.07004356384277344,-0.09913206100463867,2,0.5308090424346137,0.2517881958092348,0.0101796492210105,0.8091605827872066,0.3966672718524933,-0.8641457557678223,-0.309688925743103,-1.768684387207031,-50.07666778564453,-3.716217041015625,2
1596230007.175,61,0,102339.35915775,-0.5422899702777065,0.8938615961027815,1.033312511965463,0.1656747460365295,-0.8954907059669495,-0.375266969203949,-0.06790348887443542,0.05956375598907471,0.006957530975341797,2,0.5298303619132395,0.2427491671308483,-0.004306201813410182,0.8126094141704506,0.3990836441516876,-0.8589996099472046,-0.3207052648067474,-1.52191162109375,-50.07012939453125,-3.771636962890625,2
1596230007.205519,62,0,102339.38925575,-0.5610639342005016,0.9003044493324783,1.028673766544884,0.02000992745161057,0.13331538438797,-0.318109542131424,-0.1156750023365021,-0.0166437029838562,0.3713829517364502,2,0.5305132294364541,0.2413623871062936,-0.01134839575692831,0.8125090661349068,0.404259204864502,-0.8566154837608337,-0.3205998241901398,-0.6859664916992188,-49.91067504882812,-3.492706298828125,2
1596230007.235155,63,0,102339.41935375,-0.5685768414877653,0.9153220942448039,1.017133974659885,-0.2308396100997925,0.370118260383606,-0.4735398590564728,-0.09151127934455872,-0.08465582132339478,0.1496453881263733,2,0.5275266273085047,0.247925391444866,-0.01325437392939743,0.8124487860821739,0.4168374240398407,-0.8506045341491699,-0.3204973042011261,-0.2135238647460938,-49.90660858154297,-3.671112060546875,2
1596230007.268404,64,0,102339.44945175,-0.5760682751553373,0.9285209254818184,1.00157137899714,-0.1000971719622612,0.1495832055807114,-0.4242531657218933,0.1595699191093445,0.003947436809539795,-0.04197704792022705,2,0.5231868568352208,0.254648928900244,-0.01668946682420913,0.8131118584560525,0.4315795600414276,-0.8423189520835876,-0.3228588700294495,0.470458984375,-49.8009033203125,-4.036590576171875,2
1596230007.295399,65,0,102339.47954875,-0.5829803430964545,0.9419873828284855,0.9945618350208658,-0.02461959235370159,0.304043710231781,-0.07165531069040298,0.3158109784126282,0.09334415197372437,-0.1136751770973206,2,0.5217753474996361,0.2598250168658245,-0.01773749493418786,0.8123588029475292,0.4406522512435913,-0.8385202884674072,-0.3204828798770905,1.268875122070312,-49.99616241455078,-3.9866943359375,2
1596230007.325603,66,0,102339.50964675,-0.5765094823431562,0.9423520414072722,0.9973926830665435,0.018156997859478,-0.1197737082839012,0.3520368039608002,0.2896253168582916,0.04209321737289429,-0.3392831087112427,2,0.5219097971063059,0.2610507124670406,-0.01430163197465367,0.8119470969731247,0.4388470649719238,-0.8400593996047974,-0.3189253807067871,0.9930953979492188,-49.89256286621094,-3.9207763671875,2
1596230007.355514,67,0,102339.53974475,-0.5747548478538952,0.9335696138379418,1.010416468286099,0.2612082362174988,-0.2806784510612488,0.2300990372896194,-0.05330610275268555,-0.1315438151359558,-0.04770267009735107,2,0.5261050975539809,0.2551434141819593,-0.01262327840497379,0.8111447417673195,0.4271988272666931,-0.8470532894134521,-0.3162305355072021,0.5306930541992188,-49.97609710693359,-3.927337646484375,2
1596230007.385726,68,0,102339.56984275,-0.57964800110628,0.9327873025556187,1.012125992710707,0.09060065448284149,-0.09353801608085632,-0.06371749192476273,0.008289486169815063,0.03426229953765869,0.003610670566558838,2,0.5273088425600367,0.2531689231413966,-0.01438590192512068,0.8109524434056746,0.4257875382900238,-0.8479606509208679,-0.3157017529010773,0.129150390625,-50.06605529785156,-3.68841552734375,2
1596230007.417482,69,0,102339.59994075,-0.583836899187296,0.930173848666649,1.020668794771464,0.3058674037456512,-0.2617505192756653,0.3777952492237091,0.09132274985313416,0.03883516788482666,-0.1174143552780151,2,0.530742379634445,0.2491514528037912,-0.01463659115427013,0.8099516306379924,0.4191377758979797,-0.8524578809738159,-0.3124721646308899,0.0162506103515625,-50.08758544921875,-3.381988525390625,2
1596230007.445973,70,0,102339.63003875,-0.5899003482863412,0.9260019741538863,1.032966694743463,0.3551129996776581,-0.3885275721549988,0.09464418888092041,-0.04737389087677002,0.01028180122375488,-0.08274775743484497,2,0.5356516128822615,0.2431676436900503,-0.01512635386843947,0.8085283265029309,0.4094207584857941,-0.8588225245475769,-0.307893693447113,-0.2645492553710938,-50.17426300048828,-2.926025390625,2
1596230007.475985,71,0,102339.66013675,-0.6052822227633894,0.9272231147243684,1.040984040967609,0.4080314040184021,-0.3470005095005035,0.1213413998484612,0.03747645020484924,0.009426772594451904,-0.09697377681732178,2,0.5402269097131358,0.2377581721098808,-0.01900012072729229,0.8070097984353545,0.4042750895023346,-0.8629019260406494,-0.3032518625259399,-0.4022369384765625,-50.10240936279297,-2.4427490234375,2
1596230007.506109,72,0,102339.69023375,-0.6194913342865778,0.9294548218238183,1.054798465469895,0.4800354242324829,-0.35373854637146,0.2585228383541107,0.04081910848617554,0.0620114803314209,-0.0651518702507019,2,0.5465494196328314,0.2317096433400427,-0.02063395814545654,0.8044679494595592,0.395360916852951,-0.8698008060455322,-0.2951887547969818,-0.5416793823242188,-50.13573455810547,-1.957275390625,2
1596230007.536145,73,0,102339.72033175,-0.635759588672135,0.932313170126594,1.069510975269956,0.5417028665542603,-0.3531667292118073,0.241379976272583,-0.003517031669616699,-0.03358662128448486,-0.02758151292800903,2,0.5533133131245357,0.2250439191055313,-0.02264475062182691,0.8016775600589484,0.3858846127986908,-0.8769655823707581,-0.2863992154598236,-0.9870834350585938,-50.17615509033203,-1.15850830078125,2
1596230007.568423,74,0,102339.75042975,-0.6547989090954094,0.938002019663474,1.084813484630576,0.5847022533416748,-0.5170377492904663,0.1992888450622559,0.06372720003128052,-0.001930892467498779,-0.1140291690826416,2,0.5604916976808237,0.2184814068690293,-0.02475844819735995,0.7984371914448154,0.376641184091568,-0.88421630859375,-0.2762298583984375,-1.187660217285156,-50.13665771484375,-0.648101806640625,2
1596230007.596412,75,0,102339.78052775,-0.6877899835927553,0.9425464579237045,1.100852036492568,0.861304759979248,-1.070551156997681,0.05383992940187454,0.06436994671821594,-0.04077994823455811,-0.1787689328193665,2,0.5692133212871814,0.207179628589576,-0.03246307641628271,0.7949962337079739,0.3663708865642548,-0.8915935158729553,-0.2661455869674683,-1.584121704101562,-50.20952606201172,0.44207763671875,2
1596230007.62645,76,0,102339.81062575,-0.733442843467678,0.9454790074709821,1.115325903579693,0.733651340007782,-1.469533920288086,0.01473507285118103,0.01596495509147644,0.1908349990844727,0.06016850471496582,2,0.5783608359548399,0.1917146435226816,-0.04592709210080104,0.7916026905491023,0.3566485047340393,-0.8980541825294495,-0.257488489151001,-1.614479064941406,-50.20939636230469,1.544952392578125,2
1596230007.656526,77,0,102339.84072275,-0.7782503776877564,0.943643563556505,1.134508642962976,1.141465425491333,-1.136214375495911,0.2410067021846771,0.02899852395057678,0.2659302353858948,-0.1104419231414795,2,0.5882568107337199,0.1730919570052675,-0.05904302810076567,0.7877226212153223,0.3421618342399597,-0.9063266515731812,-0.2479861974716187,-1.466575622558594,-50.38750457763672,2.8438720703125,2
1596230007.68672,78,0,102339.87082075,-0.8322054581076233,0.9706496859430517,1.159495810622256,0.8876052498817444,-0.2635354995727539,0.2409147024154663,-0.1003514528274536,-0.1734400987625122,-0.009031713008880615,2,0.6009540623692798,0.1611133748844988,-0.06535783486672486,0.780144233077394,0.3299374580383301,-0.9166016578674316,-0.2257933914661407,-1.966781616210938,-50.13535308837891,4.853057861328125,2
1596230007.718156,79,0,102339.90091875,-0.8661027824968908,1.00482163956075,1.180746548574665,0.8023980855941772,0.4132055342197418,0.5232196450233459,-0.1680946350097656,0.211577296257019,0.09371590614318848,2,0.61071360810271,0.1583687427000973,-0.06221632482970757,0.7733546161028898,0.3209431171417236,-0.9248901605606079,-0.2038964629173279,-2.2030029296875,-50.20285797119141,5.690216064453125,2
1596230007.7472,80,0,102339.93101675,-0.9220093722534014,1.075734695658527,1.212005426088707,1.358965635299683,0.8940717577934265,0.3587116599082947,0.09272849559783936,0.2556031942367554,-0.2534422278404236,2,0.6254138363205903,0.1595186521805423,-0.05266814968034728,0.7619955964712518,0.3089838027954102,-0.9363220930099487,-0.1668226718902588,-3.434814453125,-49.99266052246094,7.544403076171875,2
1596230007.776957,81,0,102339.96111475,-0.9951051804744089,1.166143285662853,1.230841564790779,0.5978165864944458,0.3660550117492676,0.3940989673137665,0.6516879796981812,-0.2013632655143738,0.02219456434249878,2,0.6380578026033075,0.1650568347727212,-0.04600281071757911,0.7506811323349206,0.3065150082111359,-0.9427697658538818,-0.1312769651412964,-3.853111267089844,-50.09976959228516,8.602142333984375,2
1596230007.807122,82,0,102339.99121275,-1.023121037890733,1.187739818571734,1.268274547561171,1.324217677116394,-0.6244688034057617,1.551571607589722,0.2132326364517212,0.188177764415741,-0.1522029042243958,2,0.648852007935583,0.1526913702886829,-0.03774730309558272,0.7444806971238398,0.2763363718986511,-0.9545882344245911,-0.1113528311252594,-5.251884460449219,-49.45574188232422,10.15316772460938,2
1596230007.837115,83,0,102340.02130975,-1.13350073269786,1.273502622152376,1.32345614762161,1.177743911743164,-0.7482762336730957,0.944578230381012,-0.2706971764564514,-0.007487654685974121,0.08268344402313232,2,0.668665986405771,0.1304873922533569,-0.03232738327900525,0.7313095742505805,0.2340857982635498,-0.9695670604705811,-0.07171767950057983,-6.320236206054688,-48.99251556396484,11.37283325195312,2
1596230007.868267,84,0,102340.05140775,-1.20757844690612,1.326888596521528,1.342781231572403,0.6202870011329651,-0.6054977774620056,0.2718867659568787,-0.03350745141506195,-0.01981377601623535,0.1243758201599121,2,0.6772211482560077,0.1186467921479414,-0.03487916082678244,0.72531225136419,0.2193537503480911,-0.9741169810295105,-0.05458891019225121,-7.326736450195312,-48.38037109375,13.51266479492188,2
1596230007.897466,85,0,102340.0815067917,-1.302658333198826,1.397630018655592,1.365667010363047,0.9573147892951965,-0.585783064365387,0.9661348462104797,-0.284797191619873,0.05734407901763916,0.346717357635498,2,0.6867527563316261,0.1040301415063509,-0.03725302362071492,0.7184430767072325,0.200646698474884,-0.9790346622467041,-0.03509676083922386,-7.517829895019531,-48.14750671386719,14.32522583007812,2
1596230007.927462,86,0,102340.1116047917,-1.384147967518025,1.475363122232459,1.396410772095798,0.3102684020996094,0.3602731823921204,0.5007948875427246,-0.6393011808395386,0.1285585761070251,0.3197253942489624,2,0.6950320030191874,0.09308102038436933,-0.02884946554915818,0.7123441827262621,0.1727140545845032,-0.9848333597183228,-0.01653287746012211,-9.147552490234375,-47.39727783203125,15.6524658203125,2
1596230007.95774,87,0,102340.1417027917,-1.497975903449393,1.601975667116245,1.387111311813116,0.9082075357437134,0.2680424749851227,-0.808138906955719,0.06185071170330048,-0.09019142389297485,0.0005536079406738281,2,0.7018247197964863,0.101435306365964,-0.0282392988757873,0.7045250641852522,0.1825655102729797,-0.9831773042678833,0.005694117397069931,-9.333694458007812,-47.42230224609375,16.16302490234375,2
1596230007.987685,88,0,102340.1718007917,-1.561547479020905,1.65307845452509,1.378034520166033,-0.05648021399974823,-0.5830539464950562,0.3766933977603912,0.07285201549530029,-0.05841934680938721,0.3238784074783325,2,0.7055723890857274,0.10020035573353,-0.03580104772346315,0.7006038427856438,0.1909219771623611,-0.9814788699150085,0.0157450158149004,-8.449745178222656,-47.11392974853516,17.1451416015625,2
1596230008.017678,89,0,102340.2018977917,-1.564594131283362,1.647566869481154,1.393679035326082,0.1279541999101639,-0.1798678487539291,0.4059491753578186,-0.09335038065910339,-0.01114636659622192,0.07539248466491699,2,0.7059359350814268,0.09171157371208855,-0.03328766667132638,0.7015235899254223,0.1756735891103745,-0.9843556880950928,0.01351311430335045,-8.767463684082031,-47.10807800292969,17.21505737304688,2
1596230008.047868,90,0,102340.2319957917,-1.610266450610085,1.685968550500347,1.392354735058914,0.4455287456512451,-0.06971888989210129,-0.442119687795639,-0.06670796871185303,0.06864887475967407,-0.2055866718292236,2,0.7086565414624519,0.08946867412055715,-0.03616485066748887,0.6989230210001263,0.176320344209671,-0.9841215014457703,0.02039747498929501,-9.056602478027344,-46.78285217285156,17.74691772460938,2
1596230008.077892,91,0,102340.2620937917,-1.654354636463068,1.723379844967748,1.379054635481408,-0.00214018952101469,-0.4258389472961426,-0.1223979443311691,0.03552147746086121,-0.08638912439346313,0.2038365602493286,2,0.7114138572985168,0.09150301850345177,-0.04292860280148317,0.6954671990564545,0.1883547008037567,-0.9816738367080688,0.02896495722234249,-8.718147277832031,-46.73556518554688,18.12075805664062,2
1596230008.108148,92,0,102340.2921917917,-1.631401703637983,1.689191309598084,1.383403244041028,-0.124149776995182,-0.3633648157119751,0.2222283184528351,0.1400785744190216,0.02360284328460693,0.1211681365966797,2,0.7096244447140796,0.08623075770879965,-0.04555224039921016,0.6977981473156892,0.1849932968616486,-0.9824932217597961,0.02200519293546677,-8.10455322265625,-46.59042358398438,17.92184448242188,2
1596230008.138197,93,0,102340.3222897917,-1.620953000534317,1.665506314453377,1.388959963285825,-0.1363928765058517,-0.5562804937362671,0.1309679597616196,-0.07084372639656067,0.02687978744506836,0.05124771595001221,2,0.7086577446828037,0.07971734996783275,-0.04834611500955505,0.6993653329132019,0.1800248026847839,-0.9835132956504822,0.01710131019353867,-8.147254943847656,-46.75952911376953,18.06182861328125,2
1596230008.169876,94,0,102340.3523867917,-1.590345256212379,1.627272726385147,1.389405509932031,-0.2028352171182632,0.05147374793887138,-0.1425135582685471,-0.167991578578949,0.04989480972290039,0.1817643642425537,2,0.7065144054060046,0.07699871786196169,-0.05099584941511898,0.7016466801069707,0.1801103949546814,-0.983593761920929,0.01018281560391188,-8.203109741210938,-46.77163696289062,17.96469116210938,2
1596230008.198285,95,0,102340.3824847917,-1.549811287113489,1.594019335203604,1.383971590549079,-0.32026207447052,0.231842502951622,-0.1303536146879196,0.1268304884433746,-0.03575384616851807,0.0148158073425293,2,0.7039257969376767,0.08151682730768992,-0.05039583700962574,0.7037781413058626,0.1856893748044968,-0.9825989603996277,0.00431304145604372,-7.860641479492188,-47.17059326171875,17.4921875,2
1596230008.230836,96,0,102340.4125827917,-1.481089907035907,1.527821949184648,1.387300140349337,-0.4842588901519775,-0.04559381306171417,0.3169479668140411,0.1032581031322479,-0.05362653732299805,0.1302503347396851,2,0.6996458783226912,0.08109335476925855,-0.04819078696489948,0.7082351917281409,0.1822993010282516,-0.9832117557525635,-0.007839025929570198,-7.957290649414062,-47.10930633544922,17.1597900390625,2
1596230008.258485,97,0,102340.4426807917,-1.407410351092359,1.452847446468485,1.392607543815761,-0.2929456532001495,-0.07783064991235733,0.01609255000948906,0.03302717208862305,0.07238650321960449,-0.0858801007270813,2,0.6952993962547573,0.07829378599719913,-0.04629509216916811,0.7129414908793937,0.1760156750679016,-0.9841663241386414,-0.02085766568779945,-8.537315368652344,-47.40833282470703,16.27780151367188,2
1596230008.290938,98,0,102340.4727787917,-1.350244881707733,1.391678819214234,1.392167243515041,-0.4275350868701935,-0.2202982008457184,0.1399913430213928,-0.04993167519569397,-0.01086807250976562,-0.005585789680480957,2,0.6916171482767244,0.07640554727423399,-0.04722619646556453,0.7166572518235806,0.1748380810022354,-0.9840881824493408,-0.03165582567453384,-8.45269775390625,-47.57839202880859,16.0308837890625,2
1596230008.318642,99,0,102340.5028767917,-1.274098938393251,1.313004278719232,1.394436669392561,-0.320411890745163,0.04121499881148338,0.1445716321468353,-0.1491796374320984,0.04555350542068481,0.02724015712738037,2,0.6871821016331974,0.07359431794284549,-0.04619269617554594,0.7212701981946191,0.1696483641862869,-0.9844889044761658,-0.04472927004098892,-8.724784851074219,-47.84815979003906,15.38754272460938,2
1596230008.351351,100,0,102340.5329737917,-1.235823085102471,1.283395351122119,1.394228343777096,-0.1270060390233994,0.433370053768158,-0.009112142026424408,-0.040387362241745,0.05055183172225952,-0.04755640029907227,2,0.6850644150585408,0.07610277124566531,-0.04259825802116035,0.7232429528475264,0.1684466898441315,-0.9844523072242737,-0.04979022964835167,-8.8656005859375,-47.74858093261719,14.9656982421875,2
1596230008.378884,101,0,102340.5630717917,-1.201973191591319,1.259735364592611,1.394465086614052,-0.2903318405151367,0.177873283624649,0.1566445976495743,0.04512399435043335,-0.02631038427352905,-0.03904163837432861,2,0.6833065312044537,0.07903856071643187,-0.03835883024693842,0.7248266296968366,0.1670001894235611,-0.9844939112663269,-0.05369018018245697,-8.97393798828125,-48.03797912597656,14.64736938476562,2
1596230008.411013,102,0,102340.5931697917,-1.154817526641841,1.209400071874999,1.39593149951309,-0.1735484153032303,-0.4200369417667389,0.05814675241708755,0.05457228422164917,0.02570706605911255,-0.1310881972312927,2,0.6807437233770371,0.07636107077896181,-0.03791757237605947,0.7275431880009502,0.162736251950264,-0.9847500920295715,-0.06151394173502922,-9.244773864746094,-47.92294311523438,14.49435424804688,2
1596230008.439162,103,0,102340.6232677917,-1.119277499692573,1.161719500084431,1.394089718981278,-0.2782635688781738,-0.3732575178146362,0.04963676258921623,-0.04000887274742126,-0.005320250988006592,0.04061025381088257,2,0.6781631144733066,0.07165176657506531,-0.04176003292073782,0.7302168975672125,0.1612828820943832,-0.9844279885292053,-0.06992162764072418,-9.103202819824219,-48.1116943359375,14.19198608398438,2
1596230008.470172,104,0,102340.6533657917,-1.078012746255719,1.115515773554829,1.393280660447932,-0.1219897717237473,0.06693142652511597,0.06869889795780182,-0.06899502873420715,0.06728917360305786,0.01390886306762695,2,0.6755880197150088,0.06897393861145687,-0.04256122863283945,0.7328109940335579,0.1585974395275116,-0.9842854142189026,-0.07764684408903122,-9.008460998535156,-48.09195709228516,13.8685302734375,2
1596230008.49961,105,0,102340.6834627917,-1.058609431749746,1.101164971158916,1.393506779071324,-0.1376176923513412,0.1432900875806808,0.07449766248464584,-0.005605995655059814,-0.009620189666748047,-0.018715500831604,2,0.6746599315391246,0.07019204869244694,-0.04022115052899861,0.7336820322470907,0.1572684943675995,-0.9843253493309021,-0.07981410622596741,-9.278564453125,-48.12411499023438,13.5897216796875,2
1596230008.530988,106,0,102340.7135607917,-1.026827736696997,1.070744125911876,1.393340222836762,-0.1705610752105713,-0.04360633343458176,0.03534513339400291,-0.01360839605331421,-0.01854538917541504,-0.01678645610809326,2,0.6729128235021348,0.06977730192780837,-0.03884835724442087,0.7353979401448199,0.1549112796783447,-0.9842959642410278,-0.08463892340660095,-9.665786743164062,-48.01548004150391,13.51071166992188,2
1596230008.559454,107,0,102340.7436587917,-1.007047146605203,1.048755736547959,1.390973712741946,-0.1103245988488197,-0.1134418770670891,0.01891859620809555,0.07728797197341919,0.05617773532867432,-0.01612997055053711,2,0.6712968192333517,0.06904781050778044,-0.03967663832765267,0.7368980280431205,0.1550319939851761,-0.9838754534721375,-0.08918596059083939,-9.426864624023438,-48.43370056152344,13.333251953125,2
1596230008.590934,108,0,102340.7737567917,-0.9787018927723632,1.016905418711251,1.392717178717162,-0.09408891946077347,-0.1210032552480698,0.1714893132448196,-0.07705864310264587,-0.03975999355316162,0.02531230449676514,2,0.6700882121438411,0.06628743353138536,-0.03938211435862687,0.7382661174246324,0.1506545096635818,-0.9841857552528381,-0.09317553043365479,-9.377349853515625,-48.12828063964844,13.27197265625,2
1596230008.61983,109,0,102340.8038547917,-0.9668696135183895,1.00289341378438,1.391286329876293,-0.08521952480077744,0.02450121380388737,-0.1975523680448532,-0.1439859867095947,0.07124936580657959,-0.01048672199249268,2,0.6690988085228092,0.06549407602404284,-0.04012531236147165,0.7391936942884219,0.1505212187767029,-0.983931303024292,-0.09603462368249893,-9.426788330078125,-48.32704162597656,13.26016235351562,2
1596230008.651433,110,0,102340.8339527917,-0.9854861494694397,1.022877598353831,1.385939238930609,0.04855355620384216,0.0007484382949769497,-0.1097695901989937,0.137590765953064,0.03285306692123413,-0.07494151592254639,2,0.6689332119275778,0.06822730686884629,-0.04190195222055426,0.7389977249302511,0.1568988710641861,-0.9829625487327576,-0.09574678540229797,-9.114906311035156,-48.34207916259766,12.99716186523438,2
1596230008.679833,111,0,102340.8640497917,-0.9715059377768288,1.006310818978912,1.387533533355085,-0.1643926799297333,-0.2619161009788513,0.2916747033596039,0.09203943610191345,-0.1097802519798279,0.03292363882064819,2,0.6684730917016906,0.06630729240046615,-0.04180100587246,0.739594275156592,0.1539666801691055,-0.9832543134689331,-0.09749414026737213,-9.183425903320312,-48.36721038818359,12.69955444335938,2
1596230008.710871,112,0,102340.8941477917,-0.9255608488238466,0.9514813327749342,1.390771560026429,-0.07261641323566437,-0.1691040843725204,0.009674070402979851,-0.2269228994846344,0.1065258383750916,0.02460598945617676,2,0.6666208969646711,0.06040163160135312,-0.0421477870626466,0.7417490609874609,0.1457988917827606,-0.9838392734527588,-0.1039364486932755,-9.434799194335938,-48.13599395751953,12.77322387695312,2
1596230008.740095,113,0,102340.9242457917,-0.964460649738916,0.9905675231023275,1.386184844440053,0.1865310519933701,0.2048203349113464,-0.3354282975196838,-0.05109500885009766,0.04264867305755615,-0.06026941537857056,2,0.6675968193798507,0.0632298361972668,-0.04484859965855964,0.7404762526100214,0.1535219550132751,-0.9830076694488525,-0.1006329506635666,-9.370681762695312,-48.21787261962891,12.74407958984375,2
1596230008.788017,114,0,102340.9543437917,-0.965317805299202,0.9979010465765646,1.383621307350147,-0.2180436700582504,0.1012293994426727,0.1420778036117554,0.04092586040496826,-0.07926094532012939,0.08511209487915039,2,0.6671995491445967,0.06640708951301999,-0.04346909027303403,0.7406383528519461,0.1563723832368851,-0.9825338125228882,-0.1008697226643562,-8.989585876464844,-48.43920135498047,12.83856201171875,2
1596230008.800268,115,0,102340.9844417917,-0.9419807330945797,0.9736922419856663,1.383715204429577,0.03745755553245544,-0.07475627213716507,-0.0934557169675827,0.04454663395881653,0.09598875045776367,-0.03863680362701416,2,0.6659310942120036,0.06518487267949169,-0.04286040398393326,0.7419228623060601,0.1538084447383881,-0.9825513362884521,-0.1045734211802483,-9.434059143066406,-48.37017059326172,12.43606567382812,2
1596230008.830995,116,0,102341.0145387917,-0.954143594029624,0.9790284924015844,1.380620868370179,-0.1588761806488037,-0.2980446815490723,0.1042530536651611,0.1268600225448608,-0.01281511783599854,-0.07713371515274048,2,0.6657172090084056,0.06400777735463964,-0.04649144078782336,0.7419987776571231,0.1568876951932907,-0.9819710850715637,-0.1054472029209137,-8.931892395019531,-48.48893737792969,12.670166015625,2
1596230008.860389,117,0,102341.0446367917,-0.9023924984610521,0.9202165586510901,1.383303802889859,0.01063233055174351,-0.2918185591697693,0.2107110321521759,0.05392268300056458,0.04427504539489746,-0.0764269232749939,2,0.6634174830084876,0.05858530898832412,-0.04603729890551084,0.7445303679106109,0.1483209878206253,-0.982474684715271,-0.1128900125622749,-9.006759643554688,-48.51561737060547,12.40838623046875,2
1596230008.890976,118,0,102341.07473475,-0.9011272304171685,0.9124668539520069,1.386889826636791,-0.004577057436108589,-0.164180725812912,-0.02685678377747536,-0.1328974068164825,0.08905923366546631,0.05443108081817627,2,0.664094253802152,0.05512601049291171,-0.04714160153281322,0.7441219823914097,0.1446538865566254,-0.9831368327140808,-0.1118798926472664,-9.335113525390625,-48.41058349609375,12.61135864257812,2
1596230008.92066,119,0,102341.10483275,-0.909684460219545,0.917501332263752,1.383300634597303,0.0252305306494236,-0.01990153640508652,-0.1347677409648895,-0.06448251008987427,-0.05263423919677734,-0.02972143888473511,2,0.6635589126129655,0.05515659302882842,-0.04965351583436795,0.7444339416081405,0.148016944527626,-0.9824740886688232,-0.1132946386933327,-9.175201416015625,-48.43814086914062,12.64825439453125,2
1596230008.951326,120,0,102341.13493075,-0.9257085409791864,0.932288466137928,1.380989000619405,-0.005651208572089672,-0.1100577265024185,-0.1974513977766037,-0.0745876133441925,0.06783658266067505,0.08981114625930786,2,0.6638086958666458,0.05598921062916987,-0.05135744492758648,0.7440332861023222,0.1514987051486969,-0.9820405840873718,-0.1124464496970177,-8.795242309570312,-48.35717010498047,12.74227905273438,2
1596230008.980773,121,0,102341.16502775,-0.93777597971678,0.9425402768549741,1.374393345899071,-0.112572155892849,-0.005263703409582376,-0.1427477300167084,0.002180993556976318,-0.03416979312896729,0.0679326057434082,2,0.6628184068912129,0.05766867879669385,-0.05431604602213119,0.7445776341814798,0.157880961894989,-0.9807748794555664,-0.1146921664476395,-8.902496337890625,-48.54390716552734,12.39706420898438,2
1596230009.011102,122,0,102341.19512575,-0.9344554892355876,0.9375370979291394,1.371797314975806,0.03472289443016052,-0.06742522865533829,-0.08203307539224625,-0.06920015811920166,0.009426414966583252,-0.08428257703781128,2,0.6619546932456351,0.0576412734977198,-0.05547302533208687,0.7452625037447674,0.1593570113182068,-0.9802649617195129,-0.1169869378209114,-8.464347839355469,-48.77703094482422,12.47235107421875,2
1596230009.041406,123,0,102341.22522375,-0.9629049059846696,0.9633888467257383,1.367565693366821,-0.005908530205488205,0.008172628469765186,-0.2907790243625641,-0.06562107801437378,0.04905134439468384,-0.06050944328308105,2,0.6625061444360684,0.05905942604103831,-0.05871899346707932,0.7444123085459107,0.1657325178384781,-0.9794196486473083,-0.1151951849460602,-8.365715026855469,-48.62388610839844,12.41232299804688,2
1596230009.090431,124,0,102341.25532175,-0.9617783493056598,0.9664152392704108,1.363511319838676,-0.08888128399848938,0.1766146719455719,0.09337987750768661,0.1158815622329712,-0.02141231298446655,0.04907137155532837,2,0.6616003311993228,0.06173016889891667,-0.05846899024135344,0.7450206955635927,0.1693467199802399,-0.9785932898521423,-0.116948775947094,-8.0240478515625,-48.57902526855469,12.57540893554688,2
1596230009.101181,125,0,102341.28541975,-0.9438019544450196,0.948248989808714,1.36739580452066,0.02990569174289703,-0.2233128398656845,0.2043398320674896,0.1055239140987396,0.02934813499450684,-0.05481529235839844,2,0.661461380548537,0.05979179597587739,-0.05666351596761787,0.7454413733822758,0.1641040146350861,-0.9793853163719177,-0.1177875697612762,-8.080314636230469,-48.61136627197266,12.3680419921875,2
1596230009.149705,126,0,102341.31551675,-0.9273775350961891,0.9253717034860367,1.372133783868543,-0.03674005717039108,-0.1897227317094803,0.1458323150873184,-0.005314081907272339,-0.02352601289749146,0.05231362581253052,2,0.6614960046660561,0.05535328325578201,-0.05676462932481696,0.7457457211752365,0.1576581001281738,-0.9803314208984375,-0.1187181025743484,-8.39471435546875,-48.48551177978516,12.51812744140625,2
1596230009.161419,127,0,102341.34561475,-0.9218829171490297,0.9167352098471644,1.37146240666713,-0.0299814660102129,-0.04642519727349281,-0.1414598822593689,-0.1213603615760803,0.01587456464767456,0.02742296457290649,2,0.6609321398483154,0.0541368463507198,-0.05775875817280701,0.7462584920777231,0.1571494042873383,-0.9801986813545227,-0.1204758137464523,-8.36785888671875,-48.67039489746094,12.4793701171875,2
1596230009.208206,128,0,102341.37571275,-0.9403143816617033,0.9348282655408994,1.366019781784687,0.02340050600469112,-0.01270950771868229,-0.184377133846283,-0.02153697609901428,0.04014301300048828,0.01468515396118164,2,0.6606335869023716,0.05633146008619158,-0.06019040922623542,0.7461682958521425,0.1635931134223938,-0.9791064262390137,-0.1207800582051277,-8.400032043457031,-48.71231842041016,12.45034790039062,2
1596230009.221634,129,0,102341.40581075,-0.9607523107796228,0.9525000895180558,1.367281837194615,0.1818890571594238,-0.04428152367472649,0.01092755142599344,0.03609305620193481,0.009549260139465332,-0.008231401443481445,2,0.6620494296169028,0.05579989317203507,-0.0616048951984442,0.7448366800852526,0.1646945923566818,-0.9793623089790344,-0.1171538457274437,-7.873619079589844,-48.68959808349609,12.73098754882812,2
1596230009.269565,130,0,102341.43590875,-0.9646633358179452,0.9561716859215479,1.368526880625661,-0.107869990170002,0.1196870505809784,-0.008996538817882538,-0.03417852520942688,0.005210518836975098,0.01931196451187134,2,0.6625675344777119,0.05551313929961338,-0.06148694446744318,0.744407022916789,0.1641272455453873,-0.979613184928894,-0.1158451065421104,-8.00396728515625,-48.74433135986328,12.6607666015625,2
1596230009.281921,131,0,102341.46600575,-0.9359812890934518,0.9383628216540378,1.363143579295831,-0.3318682014942169,0.3962123095989227,-0.010227145627141,-0.01279535889625549,0.004298269748687744,0.05107849836349487,2,0.6599089101241178,0.05989650030782304,-0.05822157144623219,0.7466879516593424,0.1662898510694504,-0.9785175323486328,-0.1218652799725533,-7.952613830566406,-48.63282775878906,12.27398681640625,2
