loggingTime,loggingSample,identifierForVendor,motionTimestamp_sinceReboot,motionYaw,motionRoll,motionPitch,motionRotationRateX,motionRotationRateY,motionRotationRateZ,motionUserAccelerationX,motionUserAccelerationY,motionUserAccelerationZ,motionAttitudeReferenceFrame,motionQuaternionX,motionQuaternionY,motionQuaternionZ,motionQuaternionW,motionGravityX,motionGravityY,motionGravityZ,motionMagneticFieldX,motionMagneticFieldY,motionMagneticFieldZ,motionMagneticFieldCalibrationAccuracy
1596230198.697032,1,0,102530.878523125,2.097028312627581,-1.089499134755838,1.070158202207786,-0.007037890143692493,0.04835523664951324,-0.02411873824894428,-0.0102463960647583,-0.006438136100769043,0.00217437744140625,2,0.603898665285151,0.1555848799746766,0.505815915757209,0.5960286669829773,-0.4254570007324219,-0.8772764205932617,-0.2221994996070862,-28.57997894287109,-41.26444244384766,10.86355590820312,2
1596230198.724005,2,0,102530.908621125,2.096313850684287,-1.08915984339673,1.070803807894585,0.02816289663314819,-0.06954954564571381,-0.03931664302945137,-0.03590196371078491,0.04516059160232544,-0.008290708065032959,2,0.6039130674545619,0.1557186588444963,0.5055115679402992,0.5962372902041586,-0.4248795509338379,-0.8775861263275146,-0.2220814079046249,-28.49266815185547,-41.16559600830078,11.06460571289062,2
1596230198.753818,3,0,102530.938719125,2.095073887278293,-1.092038769424721,1.073055829302501,-0.008856031112372875,-0.1176145523786545,-0.1008928790688515,-0.0304277241230011,-0.003018021583557129,-0.004290282726287842,2,0.6048907955429801,0.1553512423256799,0.5035949112316361,0.596963451201785,-0.4237618148326874,-0.8786635994911194,-0.2199462354183197,-28.45145416259766,-41.26380920410156,10.90875244140625,2
1596230198.784102,4,0,102530.968816125,2.093928684044663,-1.090956428821287,1.075162218264387,0.01658887416124344,0.09213148057460785,-0.02023025788366795,0.02435207366943359,0.002805829048156738,0.01073455810546875,2,0.6048521125587145,0.1561377845669528,0.5029465779499057,0.5973438526890784,-0.4218807220458984,-0.8796672821044922,-0.219549834728241,-28.43856048583984,-41.28599548339844,11.15518188476562,2
1596230198.813953,5,0,102530.998914125,2.094879584483287,-1.089511882701418,1.075283960273452,0.04002965986728668,0.04489574581384659,-0.009040980599820614,0.001183390617370605,0.02441012859344482,-0.001942992210388184,2,0.6044225185610956,0.1569032968427743,0.503630689180056,0.5970017254640216,-0.4214683771133423,-0.8797252178192139,-0.2201095521450043,-28.40937805175781,-41.32467651367188,11.20599365234375,2
1596230198.844079,6,0,102531.029012125,2.096771068689793,-1.090779216936867,1.075841268456166,0.01732380129396915,-0.009785139933228493,0.0004396550357341766,0.04049938917160034,-0.007014155387878418,-0.001783013343811035,2,0.6046311487559475,0.1573110732290008,0.5036443777360672,0.5966715277312923,-0.4213120937347412,-0.8799900412559509,-0.2193488031625748,-28.30656433105469,-41.16197204589844,11.28271484375,2
1596230198.874104,7,0,102531.059110125,2.097851685877896,-1.092932640631765,1.075883679143791,0.001198799349367619,-0.06284958124160767,0.0195063054561615,0.029560387134552,0.01285815238952637,-0.003224372863769531,2,0.6050912214749589,0.1570118812593299,0.503302602710522,0.5965722183681552,-0.4217501282691956,-0.880010187625885,-0.2184237688779831,-28.35414886474609,-41.47584533691406,11.21176147460938,2
1596230198.904342,8,0,102531.089208125,2.097723228631708,-1.095571973119894,1.07520084702994,-0.01236267480999231,-0.1287370175123215,0.003626519814133644,0.005370378494262695,0.006837666034698486,0.001510083675384521,2,0.6057190637140933,0.1559231335003217,0.502670902891711,0.5967532481730926,-0.4228594303131104,-0.8796856999397278,-0.2175847887992859,-28.32737731933594,-41.31137847900391,11.18917846679688,2
1596230198.934481,9,0,102531.119306125,2.097252871515896,-1.099280279357003,1.07684921616233,0.05813312530517578,-0.1456271708011627,-0.09088286012411118,-0.0186690092086792,0.02899324893951416,-0.01760965585708618,2,0.6067962368850102,0.155306869277034,0.5009099391653591,0.5973000694604467,-0.4223709106445312,-0.8804683685302734,-0.2153562009334564,-28.15276336669922,-41.39377593994141,11.21795654296875,2
1596230198.964676,10,0,102531.149404125,2.095985436077772,-1.102768233802155,1.080106293929927,0.03106663748621941,-0.1626620143651962,-0.1055420190095901,-0.02891403436660767,0.02159678936004639,-0.0109102725982666,2,0.6079813107342414,0.1551298464251069,0.4984895499021658,0.5981653331798379,-0.4205580651760101,-0.882007896900177,-0.212586909532547,-28.28638458251953,-41.22744750976562,11.51190185546875,2
1596230198.998157,11,0,102531.179502125,2.098523174183261,-1.110502497349726,1.082783203412495,0.06074850633740425,-0.3149703443050385,-0.02358578518033028,-0.03579947352409363,0.005309522151947021,-0.04535269737243652,2,0.6098810189161508,0.1546158264999407,0.4960848569519991,0.5983634750091015,-0.4200725555419922,-0.8832662105560303,-0.2082781791687012,-27.881103515625,-41.31687164306641,11.67141723632812,2
1596230199.02499,12,0,102531.209600125,2.101588006017081,-1.127282388356622,1.084794492614509,0.1289158016443253,-0.5328529477119446,-0.0250189583748579,0.01381567120552063,-0.007133722305297852,-0.0851747989654541,2,0.613913047962009,0.1513005773001559,0.4912598515324261,0.5990682604928355,-0.4219029247760773,-0.8842074275016785,-0.2004378139972687,-27.80889892578125,-41.50768280029297,11.96090698242188,2
1596230199.054789,13,0,102531.239697125,2.107585157136047,-1.145915216033345,1.087799708563238,0.09374950081110001,-0.4133035838603973,-0.1255451589822769,0.01745134592056274,0.02484828233718872,-0.07133913040161133,2,0.6181916925000083,0.1487144801952327,0.4864055504854363,0.5992769542631688,-0.4231414198875427,-0.8856071829795837,-0.19144606590271,-27.40630340576172,-41.34956359863281,12.55169677734375,2
1596230199.084971,14,0,102531.269795125,2.111811811839887,-1.161445359173124,1.094948979799909,0.2485197931528091,-0.2751031517982483,-0.2140317857265472,-0.01099762320518494,0.03731560707092285,-0.0187990665435791,2,0.6220162668997833,0.148095279279003,0.4806829383464878,0.6000897161247858,-0.4202443063259125,-0.888904869556427,-0.1823271065950394,-27.20566558837891,-41.66400146484375,13.12997436523438,2
1596230199.115013,15,0,102531.299893125,2.118495596099066,-1.168732736545444,1.099928139358567,-0.003275799565017223,-0.02979396656155586,0.03787344694137573,0.08933830261230469,-0.04925096035003662,0.2179726362228394,2,0.6235150989209215,0.1498870390626081,0.4788997777381709,0.5995147703400979,-0.4174835085868835,-0.8911747336387634,-0.177525594830513,-26.76811981201172,-41.40879058837891,13.3634033203125,2
1596230199.147601,16,0,102531.329991125,2.116849933979004,-1.17861336096953,1.099176136904263,0.00449682679027319,-0.5504949688911438,-0.1294308751821518,0.0240655243396759,0.06343996524810791,-0.004691958427429199,2,0.6259585775489713,0.1461225397140582,0.4755492695073225,0.6005640384784632,-0.4198364019393921,-0.8908333778381348,-0.1736481189727783,-26.59170532226562,-41.64604949951172,13.6817626953125,2
1596230199.175175,17,0,102531.360089125,2.114683464231408,-1.189428663776506,1.1037304452722,0.03618422895669937,-0.3568445146083832,-0.04636942595243454,0.01098388433456421,-0.02866446971893311,-0.03401505947113037,2,0.6288833724849903,0.1439199843607192,0.4701117080786505,0.6023186208505491,-0.4179194867610931,-0.8928932547569275,-0.167585477232933,-26.53913116455078,-41.79698944091797,13.7740478515625,2
1596230199.205306,18,0,102531.390187125,2.119235138997649,-1.202814249942554,1.103857411611298,0.1456945687532425,-0.2106955349445343,-0.006846535950899124,-0.07105505466461182,0.02821731567382812,-0.09305566549301147,2,0.6317010051833645,0.141371651971428,0.4672251070065054,0.6022197650293709,-0.4200195372104645,-0.8929504156112671,-0.1619357913732529,-26.4068603515625,-41.64559173583984,14.19070434570312,2
1596230199.235361,19,0,102531.420285125,2.137517532689587,-1.221983422292601,1.109956637754705,0.4660009741783142,-0.03217760100960732,-0.1493989825248718,-0.1069200336933136,0.0736316442489624,-0.07098513841629028,2,0.6351004897958075,0.1437079440993058,0.4647797809331768,0.5999793119412999,-0.4179201424121857,-0.8956794142723083,-0.1519907861948013,-26.08136749267578,-41.57255554199219,14.393310546875,2
1596230199.265579,20,0,102531.450383125,2.160436389929491,-1.246666069215845,1.118609384865604,0.2783053517341614,-0.2018570452928543,-0.1905966550111771,-0.05620479583740234,0.04348582029342651,0.05838644504547119,2,0.6394109135186902,0.1468856749784284,0.461123346081253,0.5974474797256233,-0.414181649684906,-0.8994936943054199,-0.1391565650701523,-25.90931701660156,-41.46040344238281,15.30264282226562,2
1596230199.296932,21,0,102531.480481125,2.17586830838593,-1.268800126796908,1.127564281547091,0.3846581280231476,-0.4516045153141022,-0.1834383010864258,0.1808395683765411,-0.005212664604187012,-0.07777714729309082,2,0.6435392054313137,0.1485927941647137,0.4558839893567752,0.5966133270192098,-0.4094535708427429,-0.9033702611923218,-0.1275549381971359,-25.65326690673828,-41.66899871826172,15.40081787109375,2
1596230199.325732,22,0,102531.510578125,2.194513522911506,-1.302740735461017,1.131404653818337,0.1832619607448578,-0.6781896352767944,0.1198079809546471,0.1565843820571899,-0.04403126239776611,-0.05378937721252441,2,0.6498974687164579,0.1459440949161733,0.4492870153390333,0.5953777864297838,-0.4101972579956055,-0.9050105810165405,-0.1126672029495239,-25.23184204101562,-41.64273071289062,16.56216430664062,2
1596230199.355659,23,0,102531.540676125,2.214712019744518,-1.341954110414075,1.128348362870669,0.3385771512985229,-0.6308929324150085,0.1396667063236237,0.111285001039505,0.013011634349823,-0.1060396432876587,2,0.6571948096936984,0.1397559485007386,0.4434093208420614,0.5932549048055406,-0.4169908165931702,-0.9037062525749207,-0.09712651371955872,-25.06204986572266,-41.35002136230469,16.94281005859375,2
1596230199.386015,24,0,102531.570774125,2.238634278001712,-1.381301467136943,1.125743391541237,0.2868171036243439,-0.6370595097541809,0.2362935841083527,0.1392212510108948,0.05072712898254395,-0.06154710054397583,2,0.6642397460031592,0.1350552954922743,0.4382800970166744,0.59030175959146,-0.4227993488311768,-0.902587890625,-0.0810912549495697,-24.80892181396484,-40.87296295166016,18.18441772460938,2
1596230199.415855,25,0,102531.600872125,2.266617554479182,-1.427385058127505,1.11894574372244,0.415453165769577,-0.7416965961456299,0.2579023540019989,-0.06568849086761475,0.06354802846908569,-0.09873759746551514,2,0.6725474792844954,0.1283673297388929,0.4331555635309355,0.5861553267817201,-0.4321489632129669,-0.8996406197547913,-0.06240343302488327,-24.63583374023438,-40.76850128173828,18.68130493164062,2
1596230199.447306,26,0,102531.630970125,2.292015750843338,-1.471379190199486,1.117359177783684,0.3111715912818909,-0.6085487008094788,-0.04080235958099365,-0.09707838296890259,0.04827260971069336,-0.03663510084152222,2,0.6804429821245479,0.1235230943640437,0.4261719142655589,0.5831955201946699,-0.4358951449394226,-0.8989467620849609,-0.04347878694534302,-24.59233856201172,-40.35959625244141,19.951416015625,2
1596230199.476329,27,0,102531.661068125,2.31767548493258,-1.5122183330696,1.121675684029202,0.4446647167205811,-0.6525335907936096,-0.1902623325586319,-0.09297087788581848,0.01410883665084839,0.008689045906066895,2,0.6873266857209978,0.1219540445927619,0.4184021727359203,0.5810756270488175,-0.4334289133548737,-0.9008292555809021,-0.02541847713291645,-24.21417236328125,-40.3360595703125,20.23590087890625,2
1596230199.506303,28,0,102531.691166125,2.339421406828367,-1.555673295738148,1.130251102907002,0.1768261194229126,-0.8537706732749939,-0.3941374719142914,-0.2038402557373047,0.0893210768699646,0.155630350112915,2,0.6945551581813956,0.119869827210172,0.4071978382967825,0.580873828265669,-0.4263842403888702,-0.9045193195343018,-0.006448713596910238,-23.22984313964844,-40.12433624267578,21.424560546875,2
1596230199.536354,29,0,102531.721264125,2.352080567725956,-1.586440713192522,1.146149070932415,0.2761746644973755,-0.2797865867614746,-0.5416226983070374,-0.2348438203334808,0.05738013982772827,0.007994294166564941,2,0.6990097326942378,0.1208635570840217,0.3955358460377441,0.583376985506171,-0.4119487702846527,-0.9111841320991516,0.006445211824029684,-22.72948455810547,-40.173583984375,21.84664916992188,2
1596230199.566564,30,0,102531.751362125,2.394937784598889,-1.622533516168288,1.161043800931833,0.7843348979949951,0.6415541768074036,-0.5056560635566711,-0.05450814962387085,-0.06196057796478271,-0.1078252792358398,2,0.7023331531350714,0.1304957748736686,0.3910596788861468,0.5803201550121289,-0.3978497087955475,-0.9172194600105286,0.02060201019048691,-21.42936706542969,-40.17218017578125,22.49215698242188,2
1596230199.597304,31,0,102531.781460125,2.453878196620119,-1.643619823689803,1.168569072443604,0.82281893491745,1.189026474952698,-0.212433859705925,-0.1310575306415558,-0.003314495086669922,0.009842872619628906,2,0.7017399317624535,0.1476568494466196,0.3985033638051845,0.5717986377696829,-0.3904314637184143,-0.9201913475990295,0.02848295494914055,-21.66944885253906,-39.77533721923828,23.01565551757812,2
1596230199.626672,32,0,102531.811558125,2.512823865884296,-1.664631464407548,1.179932876201346,0.4493844211101532,0.9298144578933716,-0.5708044767379761,0.1852620244026184,0.06215381622314453,0.367795467376709,2,0.7001783269860451,0.1661296700895362,0.4047373176113369,0.5642153267650547,-0.3793107867240906,-0.924580454826355,0.03569751232862473,-22.08345031738281,-39.54029846191406,23.15670776367188,2
1596230199.656611,33,0,102531.841656125,2.524616464703573,-1.654207508333619,1.188015360683154,-0.09008783102035522,0.6401903629302979,0.1133831068873405,0.2954897582530975,-0.2053400278091431,0.1542518138885498,2,0.6961583809719439,0.1758481426313695,0.4094917901602905,0.5628121477710988,-0.3722033500671387,-0.9276295304298401,0.03111812099814415,-22.28260040283203,-39.67404174804688,22.98388671875,2
1596230199.686978,34,0,102531.871754125,2.525519607358453,-1.640153195906786,1.17774570090798,0.2483129352331161,0.2940361797809601,0.354516863822937,0.1168791651725769,0.05344855785369873,-0.1312721967697144,2,0.6942956537966021,0.1767060923214146,0.4174334064778628,0.558997373034545,-0.382087916135788,-0.9237449169158936,0.02654299512505531,-22.77342987060547,-39.35411834716797,22.864013671875,2
1596230199.71693,35,0,102531.901851125,2.543824039401482,-1.649909712711375,1.175464772748071,0.1154818311333656,0.2851978242397308,-0.2304530888795853,-0.1682615280151367,0.08686262369155884,-0.01429224014282227,2,0.6949569755733486,0.1795905430389056,0.419763375820162,0.5555004776100108,-0.3839097023010254,-0.9228689074516296,0.03043592162430286,-23.35254669189453,-39.14749908447266,22.85287475585938,2
1596230199.74716,36,0,102531.931949125,2.557271341824661,-1.646914205070985,1.182450901855451,0.2627618908882141,0.6306635737419128,-0.07037941366434097,0.1670092940330505,-0.02993988990783691,0.05986523628234863,2,0.6923031000820495,0.1873867927986961,0.4226500028588643,0.5540483544717185,-0.3775611221790314,-0.9255368709564209,0.0287947840988636,-23.44683837890625,-39.44473266601562,22.85214233398438,2
1596230199.777074,37,0,102531.962047125,2.571169015936778,-1.648690030308753,1.173070624041484,-0.03703710064291954,0.01329333987087011,0.602446973323822,0.2392806708812714,-0.1105159521102905,0.1581423282623291,2,0.6924526583825994,0.1886241175221714,0.4283790510848801,0.5490187770146644,-0.386148065328598,-0.921944260597229,0.03013948351144791,-23.81209564208984,-39.00988006591797,22.9637451171875,2
1596230199.807201,38,0,102531.992145125,2.543525282209329,-1.630705192723539,1.155509803777536,-0.4169493913650513,-0.4685625731945038,0.5011228322982788,0.3170143365859985,-0.003326296806335449,0.266974925994873,2,0.6930590297338599,0.1781772823921332,0.4317185450519906,0.5491277458706094,-0.4027287065982819,-0.9150007367134094,0.02415592595934868,-24.39555358886719,-38.74000549316406,22.63754272460938,2
1596230199.837361,39,0,102532.022243125,2.504686655040638,-1.620368017734417,1.142906027098192,-0.756900429725647,-1.199612259864807,0.5502157211303711,0.431594043970108,-0.05574893951416016,0.1586947441101074,2,0.6954177496300042,0.1633244893595157,0.4280099737944097,0.5536486365506886,-0.4144427180290222,-0.9098432064056396,0.0205614697188139,-24.58336639404297,-38.78700256347656,22.54525756835938,2
1596230199.867416,40,0,102532.052341125,2.44442646209766,-1.609090007875308,1.119204597015788,-0.6365953087806702,-1.629166483879089,0.9804026484489441,0.2379776537418365,0.04202651977539062,-0.02094686031341553,2,0.699623279636246,0.1374077149526411,0.4216788342601861,0.5602084629402821,-0.4360787272453308,-0.8997536301612854,0.01670722663402557,-24.55540466308594,-38.83019256591797,22.64749145507812,2
1596230199.897862,41,0,102532.082439125,2.406255420747554,-1.622759969072072,1.092366988336346,-0.6751360893249512,-1.644710302352905,0.9522942304611206,0.4700374007225037,-0.01912152767181396,0.3953039646148682,2,0.7068533967499692,0.1109709280505227,0.413606430631335,0.5630039778577388,-0.4597640633583069,-0.8877191543579102,0.02391254343092442,-24.38445281982422,-38.56034088134766,22.9808349609375,2
1596230199.927624,42,0,102532.112537125,2.341960197260763,-1.62919728912083,1.053356192530247,-1.405184388160706,-2.221508741378784,1.836968898773193,0.4670575857162476,-0.2497051954269409,0.7888367176055908,2,0.7135255028772693,0.07292030488372492,0.4040569221553016,0.5677164797775559,-0.4938137233257294,-0.8690882921218872,0.02887202799320221,-24.39897918701172,-38.41068267822266,23.24554443359375,2
1596230199.957631,43,0,102532.142635125,2.210109402433747,-1.589109731392285,0.9852911683685113,-2.661766767501831,-2.806585788726807,2.657828092575073,-0.3382856845855713,0.0708763599395752,0.1616333723068237,2,0.71054315944975,0.01372286727517835,0.3999842018689649,0.5787510302403969,-0.5525278449058533,-0.8334330320358276,0.01011979673057795,-25.32664489746094,-38.30574035644531,22.82534790039062,2
1596230199.990055,44,0,102532.172733125,2.111039629661261,-1.575185617046658,0.9284542211090893,-0.8882357478141785,-1.204468727111816,0.8406676054000854,-0.822869598865509,0.5352532267570496,-0.4530129432678223,2,0.7070489547980358,-0.037370085632697,0.3926152374573297,0.5869742037307992,-0.5990669131278992,-0.8006948828697205,0.002629495458677411,-25.86437225341797,-38.28495025634766,22.21438598632812,2
1596230200.017912,45,0,102532.202831125,2.091397239413021,-1.571568324130533,0.9207725034539825,-0.1824409663677216,0.2019091844558716,0.07407813519239426,-0.5232822299003601,0.1879138946533203,-0.1473701000213623,2,0.7057774989528507,-0.04595356920091265,0.3903757812651002,0.589383837649178,-0.6052054762840271,-0.7960693836212158,0.0004672170907724649,-26.05538940429688,-38.30512237548828,21.74844360351562,2
1596230200.050202,46,0,102532.2329287917,2.075637740004013,-1.541860203223625,0.9090219176106374,-0.4948589503765106,0.6700866222381592,0.6912310719490051,0.1169379949569702,0.01678609848022461,0.2255550026893616,2,0.6992226671387407,-0.0468830397933801,0.3996238250570033,0.5909235115372734,-0.6142606735229492,-0.7889030575752258,-0.0177792850881815,-26.83362579345703,-38.18708038330078,21.16104125976562,2
1596230200.078085,47,0,102532.2630267917,2.043034955960138,-1.515545459335562,0.8849703089554132,-0.9309672713279724,-0.8146764636039734,0.7881618142127991,0.3173516392707825,0.08697938919067383,0.04319870471954346,2,0.6921221101617332,-0.05899450205194731,0.4062116680994938,0.5936992055813195,-0.6323461532592773,-0.7738961577415466,-0.03497326746582985,-27.40371704101562,-38.19818878173828,20.59890747070312,2
1596230200.109899,48,0,102532.2931247917,2.002893559416607,-1.522729334906599,0.8626938467054116,-0.5671448707580566,-1.175607919692993,0.4799858629703522,-0.4141408205032349,0.1028522253036499,-0.4313239455223083,2,0.6910106832573587,-0.08293987266938072,0.3983577681507978,0.5974414597889848,-0.6496424078941345,-0.7595973610877991,-0.03125042468309402,-27.89784240722656,-38.18550872802734,20.20025634765625,2
1596230200.138361,49,0,102532.3232227917,1.994196875755809,-1.526175958358444,0.8575352789795554,0.01326517388224602,0.4131795763969421,-0.07219629734754562,-0.5045285224914551,0.1767120361328125,-0.277289092540741,2,0.6910291559585108,-0.08880270675934979,0.3960975322878233,0.598079867673323,-0.6536521315574646,-0.7562322020530701,-0.02918556891381741,-27.65657806396484,-38.12715911865234,20.1009521484375,2
1596230200.170107,50,0,102532.3533207917,1.999675634614736,-1.509573717877091,0.859777033073819,0.2414441704750061,0.6650069952011108,0.01870677620172501,-0.08278560638427734,0.1700947880744934,-0.1848421096801758,2,0.6880766531171246,-0.08115334209449621,0.4027956081459443,0.5980972380891452,-0.6513836979866028,-0.7576970458030701,-0.03992930799722672,-27.94509124755859,-38.02182769775391,19.79248046875,2
1596230200.198618,51,0,102532.3834187917,2.018416343721772,-1.510846403262077,0.8623791487866481,0.5321577191352844,0.2668872177600861,-0.2527955770492554,0.01449626684188843,0.06346070766448975,-0.0886799693107605,2,0.6892098483926795,-0.07415375158300719,0.4071775796159977,0.594724636121958,-0.6494637131690979,-0.7593926787376404,-0.03898201137781143,-28.09748077392578,-38.00852203369141,19.8223876953125,2
1596230200.230597,52,0,102532.4135167917,2.032247580456545,-1.515686170132068,0.8712842365828674,-0.05213722214102745,0.1296279430389404,-0.1163828074932098,0.0001962184906005859,-0.2122679948806763,0.252832293510437,2,0.6911525132713154,-0.06764606946855986,0.4069932725604725,0.5933707763320601,-0.6428672671318054,-0.7651563882827759,-0.03546442463994026,-28.06431579589844,-37.76480102539062,20.33651733398438,2
1596230200.25869,53,0,102532.4436147917,2.01766799095977,-1.501895442094293,0.8684682963902338,-0.3475944995880127,-0.001973973819985986,0.115103118121624,-0.04191702604293823,-0.01081556081771851,0.09221011400222778,2,0.6876933332989951,-0.06957454593644108,0.408240680799508,0.5963026235284763,-0.6444637775421143,-0.7633403539657593,-0.0444745235145092,-27.96112060546875,-38.15573120117188,20.05853271484375,2
1596230200.290625,54,0,102532.4737127917,2.011414336531697,-1.500876792778641,0.8723226772224523,0.006198976188898087,-0.1288459002971649,-0.3675892353057861,0.09292006492614746,0.1197386980056763,-0.05833381414413452,2,0.6874818435266054,-0.07004400754977599,0.4055842422961202,0.5983009566771349,-0.641478419303894,-0.7658246159553528,-0.04492510482668877,-28.10314178466797,-38.12274169921875,19.57232666015625,2
1596230200.318885,55,0,102532.5038107917,2.005712847176207,-1.49988009607567,0.8778665148728373,-0.2167192697525024,-0.2197866439819336,0.09931842237710953,-0.02841711044311523,-0.04124152660369873,-0.09650444984436035,2,0.6873913795091657,-0.0697254191707713,0.402574435492181,0.6004709547317582,-0.6371885538101196,-0.7693777680397034,-0.04526291415095329,-27.79422760009766,-38.53726196289062,19.41168212890625,2
1596230200.349518,56,0,102532.5339087917,2.002545677810641,-1.493083963951348,0.8765305517357495,0.2106912583112717,0.6229784488677979,-0.1474855244159698,0.2205394506454468,0.06380391120910645,0.02527427673339844,2,0.685834248472931,-0.06924864183808743,0.4043530222227294,0.6011113317450041,-0.6378905773162842,-0.7685236930847168,-0.04967201873660088,-27.95292663574219,-38.57194519042969,19.4677734375,2
1596230200.379039,57,0,102532.5640057917,2.020621560726874,-1.477038548582448,0.8724201274204297,-0.1748863905668259,1.752520084381104,0.8835188746452332,-0.01409238576889038,-0.8531899452209473,0.1282864212989807,2,0.6828868969267825,-0.05972993819436431,0.4164744090217904,0.5971993639498679,-0.6401512026786804,-0.7658872604370117,-0.06019563972949982,-28.16062164306641,-38.62953948974609,19.40264892578125,2
1596230200.410095,58,0,102532.5941037917,1.994353519029956,-1.393543140320078,0.8347693563153838,0.1278437972068787,1.023419260978699,0.9744805097579956,0.5011447072029114,0.3413339853286743,-0.3545690178871155,2,0.6614648935411882,-0.05723568726100248,0.4476922313612139,0.5989657515779576,-0.6608298420906067,-0.741141676902771,-0.1183765381574631,-30.55747985839844,-37.70814514160156,17.00579833984375,2
1596230200.4393,59,0,102532.6242017917,2.029285802795424,-1.434512113572392,0.8274138197793884,0.217727392911911,-1.060137271881104,-0.04908692091703415,-0.03497624397277832,0.3365681171417236,-0.1100530624389648,2,0.6710978081775519,-0.06044012557904649,0.4465395726896894,0.5887080549374853,-0.6705066561698914,-0.7361835837364197,-0.09194944798946381,-31.51531219482422,-37.21942901611328,16.74777221679688,2
1596230200.470186,60,0,102532.6542997917,2.023197081759724,-1.453215018811649,0.8237973715735717,0.05214123427867889,0.03318691626191139,0.1410463154315948,-0.6556006669998169,0.08281576633453369,0.1418043375015259,2,0.6747920551560452,-0.06930320021731773,0.4394953648493011,0.5888095923858084,-0.6747487187385559,-0.733731210231781,-0.07970549911260605,-31.11829376220703,-36.8211669921875,18.0523681640625,2
1596230200.499439,61,0,102532.6843977917,2.038840262488653,-1.445567997641872,0.8332757290681988,0.3558061420917511,0.8534494042396545,-0.5759040713310242,-0.1427240967750549,0.03875744342803955,0.08932334184646606,2,0.674240155296588,-0.05835213219681498,0.4439441113767139,0.5872894716249593,-0.6671890616416931,-0.7401381134986877,-0.08399048447608948,-31.14510345458984,-36.68682098388672,18.21249389648438,2
1596230200.53058,62,0,102532.7144957917,2.042183204844819,-1.43211378043085,0.8451477181098273,0.05643592029809952,0.1935996115207672,-0.0114698950201273,0.3692656755447388,-0.1861754655838013,0.0005727410316467285,2,0.6721114411665724,-0.04896165070599945,0.4460367884727526,0.5889994542041701,-0.6572496294975281,-0.748069167137146,-0.09173793345689774,-30.935302734375,-36.98248291015625,18.0009765625,2
1596230200.559622,63,0,102532.7445937917,2.053455969058929,-1.445112551621696,0.8374638645772484,0.3235005438327789,-0.2268818765878677,0.3378870785236359,0.05800187587738037,0.002557635307312012,-0.1076620817184448,2,0.6748090156242932,-0.05177122826560857,0.4471774076617119,0.5847949419209337,-0.6640697717666626,-0.7429479360580444,-0.08390506356954575,-30.91225433349609,-36.73947143554688,18.09432983398438,2
1596230200.608715,64,0,102532.7746917917,2.062889547083737,-1.447488042142634,0.8370689454158705,0.1075171679258347,0.4651961624622345,-0.2244440615177155,-0.3757989406585693,0.09864902496337891,0.05405962467193604,2,0.6755558325987044,-0.0494229555442989,0.449241478476699,0.5825493611426255,-0.6645580530166626,-0.7426835298538208,-0.08236337453126907,-30.94862365722656,-36.65375518798828,18.15582275390625,2
1596230200.62018,65,0,102532.8047897917,2.073306775393475,-1.442030374201925,0.847475597143443,0.4166925549507141,0.3443210422992706,-0.3539918065071106,-0.1897945404052734,0.1076396107673645,-0.1103599667549133,2,0.6751747230202805,-0.04053523501357842,0.4511410133490577,0.5822094170289547,-0.6563979983329773,-0.7496119737625122,-0.08499197661876678,-31.05284118652344,-36.62624359130859,18.35345458984375,2
1596230200.669083,66,0,102532.8348877917,2.086273152883914,-1.441273171066631,0.8604358838985987,0.3048538565635681,0.4728926718235016,-0.4154339730739594,-0.01953452825546265,0.009153246879577637,0.004587411880493164,2,0.6759526419386102,-0.03121712242148489,0.4514599988818324,0.5816335296303443,-0.6466450095176697,-0.7581268548965454,-0.08422703295946121,-30.91923522949219,-36.84978485107422,18.30810546875,2
1596230200.680045,67,0,102532.8649847917,2.102451458170707,-1.435557088535498,0.8721309713182769,0.4127613604068756,0.600381076335907,-0.2404367923736572,0.07702064514160156,-0.0539090633392334,-0.02688241004943848,2,0.675460413547378,-0.0198243356289971,0.4547425812994323,0.5801459499579777,-0.637323260307312,-0.7657012939453125,-0.08672045171260834,-30.88764190673828,-36.91415405273438,18.29336547851562,2
1596230200.71039,68,0,102532.8950827917,2.117389298084558,-1.435188735931699,0.8808674431263612,0.3753610551357269,0.2172196954488754,-0.2999585866928101,-0.01430338621139526,0.06532764434814453,-0.05232918262481689,2,0.6759027252804308,-0.01147769788177455,0.4566954862724936,0.5783190965404545,-0.6306390166282654,-0.7712912559509277,-0.08604753762483597,-30.74812316894531,-36.91245269775391,18.14071655273438,2
1596230200.740213,69,0,102532.9251807917,2.137550717107402,-1.44003604812673,0.8943009388623144,0.5249019265174866,0.6078953146934509,-0.4445008635520935,-0.1392409205436707,0.009957671165466309,-0.03959304094314575,2,0.6776304858789912,-0.001141294288284245,0.4570370500402655,0.5761361527355015,-0.6207195520401001,-0.779771625995636,-0.08163124322891235,-30.78541564941406,-37.07627105712891,18.38934326171875,2
1596230200.789633,70,0,102532.9552787917,2.162445885363953,-1.43587544180854,0.9091330364124534,0.6443558931350708,0.8305766582489014,-0.3937846720218658,-0.02027833461761475,-0.02835571765899658,-0.0378149151802063,2,0.6771131696148995,0.01391647631118953,0.4613687530176489,0.5731169677524669,-0.6088461875915527,-0.7889713644981384,-0.08264817297458649,-30.62668609619141,-37.04653167724609,18.47796630859375,2
1596230200.800363,71,0,102532.9853767917,2.188712804122271,-1.437280588524152,0.9247193435973154,0.4698862731456757,0.3984813094139099,-0.5175049901008606,-0.03367209434509277,0.05020749568939209,0.01668643951416016,2,0.6775958303117759,0.02812519546207354,0.4639631257099697,0.5699221285537464,-0.5967006087303162,-0.798451840877533,-0.08014573156833649,-30.42152404785156,-37.04341125488281,18.42697143554688,2
1596230200.848684,72,0,102533.0154747917,2.207008212412288,-1.448722921451954,0.9442676848958301,0.4726113379001617,-0.08688735961914062,-0.7200554609298706,-0.1951140761375427,0.1455074548721313,-0.04590559005737305,2,0.6803226372030159,0.03823465171820267,0.4597257972948926,0.56951864767784,-0.5819730162620544,-0.8100677728652954,-0.07139844447374344,-30.19483184814453,-37.20182800292969,18.71768188476562,2
1596230200.860523,73,0,102533.0455727917,2.224725456394352,-1.460268522283606,0.9732078920417867,0.3940646350383759,0.3740536272525787,-1.068829417228699,-0.2845689654350281,0.1911075115203857,0.1761987209320068,2,0.6828706237802689,0.05154323523008647,0.4525712046971231,0.571148392197756,-0.5592175126075745,-0.8266949057579041,-0.06206201389431953,-29.45413208007812,-37.64302062988281,19.08563232421875,2
1596230200.907158,74,0,102533.0756707917,2.239787171705817,-1.449056771974621,1.007771975690355,0.4178442358970642,1.194678783416748,-1.12498140335083,-0.1509218215942383,0.1057759523391724,0.3010775446891785,2,0.6799536112793129,0.07248625349214438,0.4507509597135073,0.5737878551623872,-0.5297960042953491,-0.8456447720527649,-0.06481765955686569,-28.70610809326172,-38.19176483154297,19.45086669921875,2
1596230200.920834,75,0,102533.1057687917,2.250430897088243,-1.41699095031903,1.04167822623985,0.2095603197813034,1.398515224456787,-1.014746904373169,0.1570773720741272,-0.06723463535308838,0.2789552807807922,2,0.6721512579220247,0.09770970505920346,0.45479637317699,0.5760433506671769,-0.4988138675689697,-0.863252580165863,-0.07733099907636642,-27.68449401855469,-38.87732696533203,18.72885131835938,2
1596230200.968327,76,0,102533.1358657917,2.245530468651923,-1.380431311213297,1.066141436629347,-0.02867133170366287,0.6817031502723694,-0.5853411555290222,0.3251372575759888,-0.02986574172973633,0.06410104036331177,2,0.6639905567129578,0.1156406581108769,0.4584068853001513,0.5793158000790491,-0.4747707545757294,-0.8753414154052734,-0.09148755669593811,-27.42792510986328,-39.52201080322266,17.68038940429688,2
1596230200.980984,77,0,102533.1659637917,2.236697165062245,-1.360227474807226,1.081385471362914,-0.05367760732769966,0.2828676700592041,-0.5745493173599243,0.09417158365249634,0.02863335609436035,0.01565217971801758,2,0.6598773911526449,0.1242252451160547,0.4580066738098361,0.5825460910049234,-0.459722638130188,-0.8826099634170532,-0.09825983643531799,-27.34743499755859,-40.04106140136719,17.53448486328125,2
1596230201.02791,78,0,102533.1960617917,2.225582903313253,-1.341507659749664,1.10066741226004,-0.008135835640132427,0.4230334162712097,-0.7120417356491089,-0.1159261167049408,0.1259258985519409,0.01748669147491455,2,0.6563379365365801,0.133192863283133,0.4551452144034487,0.5867904821979228,-0.4411455392837524,-0.8915098905563354,-0.1029603481292725,-26.43972778320312,-40.83180236816406,17.08355712890625,2
1596230201.041491,79,0,102533.2261597917,2.216992084569133,-1.312901132883492,1.121707202832836,0.1712411791086197,0.9385660290718079,-0.655199408531189,0.07249438762664795,0.06578987836837769,-0.002946138381958008,2,0.6504898713668789,0.1466267836102988,0.4556029801857318,0.5897368760284984,-0.4197877943515778,-0.9008429050445557,-0.1107270270586014,-26.25675201416016,-40.95492553710938,16.80462646484375,2
1596230201.088742,80,0,102533.2562576667,2.221089517208384,-1.289907225569765,1.138754573078974,0.1498701721429825,0.7559853792190552,-0.4540385603904724,0.05934792757034302,0.0280991792678833,-0.06541228294372559,2,0.6449899621206763,0.1610914637475195,0.4590646767133754,0.5893191765149164,-0.4023156464099884,-0.9081127047538757,-0.1160749793052673,-25.77639007568359,-41.38790893554688,16.4173583984375,2
1596230201.101515,81,0,102533.2863556667,2.222813916193408,-1.274515032473744,1.153237792898145,0.1759277582168579,0.4742801487445831,-0.4294827580451965,0.1922954916954041,-0.2134860157966614,-0.05479967594146729,2,0.6413695753919082,0.1715943614072861,0.4600883139397938,0.58950771869209,-0.387860894203186,-0.9140817523002625,-0.1184008866548538,-25.65172576904297,-41.56141662597656,16.07052612304688,2
1596230201.149424,82,0,102533.3164536667,2.225451198325457,-1.258447732119057,1.160763599618926,0.0328279547393322,0.5598503351211548,-0.002229196019470692,0.0565953254699707,-0.09297239780426025,0.1018208265304565,2,0.6374600856176875,0.1799854094345742,0.4636892067839708,0.5884236601057944,-0.3793513774871826,-0.9171077609062195,-0.1224997863173485,-25.30757141113281,-41.61307525634766,15.89840698242188,2
1596230201.161548,83,0,102533.3465516667,2.219576749215729,-1.240361312783753,1.161742046460833,-0.1343178451061249,0.3692895174026489,-0.2756379544734955,-0.2838079929351807,0.137692928314209,0.0554041862487793,2,0.6337907681701808,0.1838059694134068,0.4674079789174385,0.5882640371292773,-0.3762248456478119,-0.9174973964691162,-0.1290492564439774,-25.73645782470703,-41.72993469238281,15.60174560546875,2
1596230201.209214,84,0,102533.3766496667,2.204699155357306,-1.205676299793574,1.172300264483924,0.04417621716856956,1.097252011299133,-0.3503203392028809,0.1536509990692139,0.003362834453582764,0.1522088050842285,2,0.6271825486334088,0.193303408206189,0.47069837548784,0.589677131671574,-0.3624544143676758,-0.9216456413269043,-0.1385516822338104,-25.39881896972656,-42.00011444091797,14.97232055664062,2
1596230201.221711,85,0,102533.4067466667,2.200220484063026,-1.168633905579373,1.174911921390858,-0.1806971728801727,0.7457725405693054,0.08153646439313889,0.07174834609031677,-0.0729447603225708,-0.02879583835601807,2,0.6188691288216632,0.2037952454199381,0.4801100481701569,0.5873354744545709,-0.3548582196235657,-0.9226558804512024,-0.1509370058774948,-25.29623413085938,-42.02525329589844,14.58224487304688,2
1596230201.267019,86,0,102533.4368446667,2.18268407577515,-1.14322301239497,1.174897658142676,-0.1675859093666077,-0.02408929541707039,-0.3409892320632935,0.05378022789955139,0.1476919651031494,-0.09871149063110352,2,0.6145475620519485,0.2058551081919558,0.4827929737218766,0.5889532573753444,-0.3509204089641571,-0.9226503968238831,-0.1599099338054657,-25.62751770019531,-42.10842895507812,13.713134765625,2
1596230201.282053,87,0,102533.4669426667,2.158972099767126,-1.120950883332093,1.182470265938429,-0.1288014799356461,0.1273349970579147,-0.1830882728099823,0.3603308498859406,-0.07294678688049316,0.01437699794769287,2,0.6118798740458382,0.2080425559319279,0.4802563489770615,0.5930221683166308,-0.3409706950187683,-0.9255442023277283,-0.1646426320075989,-25.56139373779297,-42.32042694091797,13.74386596679688,2
1596230201.329514,88,0,102533.4970406667,2.156903309303435,-1.11431071611892,1.178392813977794,-0.0885704904794693,0.01483686827123165,0.2694739997386932,0.08842971920967102,-0.04430699348449707,-0.08725345134735107,2,0.6103480719878891,0.2078284922368754,0.4829441377172791,0.5924926535442283,-0.3432543277740479,-0.9239925742149353,-0.1685650944709778,-25.52931976318359,-42.1622314453125,13.03366088867188,2
1596230201.342215,89,0,102533.5271386667,2.153568688884123,-1.117636915399148,1.175454545797488,-0.02709035202860832,-0.08102387934923172,-0.2560158669948578,-0.3169788420200348,0.1801210641860962,-0.03572475910186768,2,0.6113838180105654,0.2047063792615101,0.4818551723703729,0.5933975627305873,-0.3462523818016052,-0.9228649735450745,-0.1686102449893951,-25.72034454345703,-42.30992126464844,13.13772583007812,2
1596230201.389016,90,0,102533.5572366667,2.146821582993985,-1.101406366230617,1.184329607609837,0.08881010115146637,0.6020140051841736,-0.1175534576177597,0.101907342672348,-0.01837104558944702,0.0003815293312072754,2,0.6085206637145871,0.210842530971795,0.4820325018779277,0.5940477734632519,-0.3361524045467377,-0.9262465834617615,-0.1704960614442825,-25.35599517822266,-42.431396484375,13.1700439453125,2
1596230201.402382,91,0,102533.5873346667,2.156182099947105,-1.097626941369513,1.184389422058974,0.09386080503463745,0.08838164061307907,0.05174684524536133,0.1971491575241089,-0.06214094161987305,-0.1450250148773193,2,0.6066123078918819,0.2148288932234722,0.4859360851366418,0.5913850639421392,-0.3354564309120178,-0.9262691140174866,-0.1717401146888733,-25.42153930664062,-42.43277740478516,12.89236450195312,2
1596230201.449404,92,0,102533.6174326667,2.158357971917976,-1.107044562278209,1.18554362811043,0.02615763247013092,-0.4922723770141602,-0.06179165095090866,0.008091241121292114,0.09885251522064209,-0.04227453470230103,2,0.6087056217864638,0.2131432260156019,0.4833578443253465,0.5919565825179735,-0.3361022174358368,-0.9267035126686096,-0.1680948585271835,-25.54330444335938,-42.53556060791016,13.003173828125,2
1596230201.462542,93,0,102533.6475306667,2.162176662466151,-1.118504447995529,1.187300953228638,0.1193057298660278,0.0804884284734726,0.03513635322451591,-0.02040952444076538,0.002886414527893066,0.06113648414611816,2,0.6111241169630568,0.2115824372513803,0.4804446596559413,0.5923961560085859,-0.3365413844585419,-0.9273624420166016,-0.1635203659534454,-25.13433837890625,-42.43381500244141,13.3131103515625,2
1596230201.508738,94,0,102533.6776276667,2.172890052577265,-1.123534879021993,1.186107313453896,0.06338886916637421,0.03818150982260704,0.1139331310987473,0.03585931658744812,-0.06569737195968628,0.02407598495483398,2,0.6111587459304809,0.2129154052872672,0.4824479859701307,0.5902508714914645,-0.3383575975894928,-0.926915168762207,-0.1623040288686752,-25.40310668945312,-42.35376739501953,13.55755615234375,2
1596230201.522838,95,0,102533.7077256667,2.177398000824812,-1.134608720854326,1.184501983933244,-0.01251522731035948,-0.398984283208847,0.01844127476215363,0.06934541463851929,0.02350378036499023,0.03373801708221436,2,0.6132996947215601,0.2104178823982683,0.4808892673929491,0.5901977106645925,-0.3414821624755859,-0.9263115525245667,-0.1591756045818329,-25.54736328125,-42.30589294433594,13.64712524414062,2
1596230201.567739,96,0,102533.7378236667,2.177223226470093,-1.145690162214026,1.183135512906921,0.01134176645427942,-0.3192000389099121,0.09190947562456131,0.0479121208190918,-0.01765280961990356,0.03736436367034912,2,0.6159349517423403,0.2065727489845643,0.4778584407333826,0.591272499260882,-0.3443778455257416,-0.92579585313797,-0.1559036672115326,-25.39812469482422,-42.38301849365234,13.74929809570312,2
1596230201.582984,97,0,102533.7679216667,2.179780418448225,-1.154260279861539,1.179325208747026,-0.09721991419792175,-0.1175269186496735,0.1677393913269043,-0.01434341073036194,-0.03456133604049683,0.1082308292388916,2,0.6176153287410318,0.203383753532807,0.4771590773626172,0.591189948521456,-0.3489246666431427,-0.924348771572113,-0.1543727070093155,-25.34219360351562,-42.12725067138672,14.0576171875,2
1596230201.628383,98,0,102533.7980196667,2.17940306788457,-1.158532561319654,1.174304816589528,-0.02112900838255882,-0.1531193554401398,0.07559232413768768,-0.02164113521575928,0.04727131128311157,-0.01139390468597412,2,0.6185388029087177,0.2001016268109689,0.477289707446767,0.5912391391656554,-0.3538285791873932,-0.9224215745925903,-0.1547381728887558,-25.31192779541016,-42.07426452636719,14.10299682617188,2
1596230201.643114,99,0,102533.8281176667,2.180868494637966,-1.163025384665875,1.173494963374431,0.008901934139430523,-0.06283877789974213,0.05865331739187241,-0.138134628534317,0.03117668628692627,-0.08777999877929688,2,0.6194426763646645,0.1989201639836756,0.4765841312961773,0.5912606430631178,-0.355205774307251,-0.92210853099823,-0.1534430831670761,-25.50345611572266,-42.30481719970703,14.13043212890625,2
1596230201.687903,100,0,102533.8582156667,2.187361879501717,-1.167278279944022,1.173178055769619,0.09359403699636459,0.1557162255048752,0.0007635452784597874,-0.06380924582481384,0.0377967357635498,-0.02603995800018311,2,0.6198020571565019,0.1995557632607013,0.477282808081683,0.5901051723641995,-0.3561239540576935,-0.9219858646392822,-0.1520458161830902,-25.59138488769531,-42.07572174072266,14.06967163085938,2
1596230201.703447,101,0,102533.8883136667,2.186166448848696,-1.148832661908747,1.172155496012977,-0.1436326205730438,0.9054272770881653,0.1530260890722275,0.2199250161647797,-0.01689565181732178,0.3014321327209473,2,0.6154684215131303,0.2042336486532041,0.482944275082836,0.5884318840709871,-0.3541187345981598,-0.9215894341468811,-0.1589744836091995,-25.81681823730469,-42.17287445068359,13.80123901367188,2
1596230201.749454,102,0,102533.9184116667,2.192684046232145,-1.147404743444963,1.167995489525113,0.006253893952816725,-0.1565435826778412,0.03264906629920006,-0.07592961192131042,0.02834969758987427,-0.07232999801635742,2,0.6143424410433302,0.205076762464861,0.4865863152781474,0.5863111066269149,-0.357383668422699,-0.9199666976928711,-0.1610537767410278,-26.12359619140625,-42.07234954833984,13.50274658203125,2
1596230201.76377,103,0,102533.9485086667,2.19780604274915,-1.155754142659313,1.168574326167238,0.0649239718914032,0.02095926180481911,0.0997643917798996,0.1125179827213287,-0.0349733829498291,-0.02279758453369141,2,0.6158617668088946,0.204425013576924,0.4853403527651617,0.5859772887645023,-0.3582282960414886,-0.9201934337615967,-0.1578494012355804,-26.17916870117188,-42.01596832275391,13.66714477539062,2
1596230201.808245,104,0,102533.9786066667,2.209264647073579,-1.165774815880309,1.161708968830319,0.07546240091323853,-0.09617693722248077,0.3395920693874359,-0.07960528135299683,0.0336761474609375,-0.03544431924819946,2,0.6169741883599915,0.2024203228454569,0.4877216608424734,0.5835209073118116,-0.365590363740921,-0.9174842238426208,-0.1567377299070358,-26.45454406738281,-41.99352264404297,13.62286376953125,2
1596230201.823795,105,0,102534.0087046667,2.218880871328586,-1.177773076896935,1.157795494753546,0.02649501711130142,-0.1539358049631119,0.001994123216718435,-0.03460299968719482,0.02853620052337646,-0.01305770874023438,2,0.6188527263881262,0.2004104662607681,0.4880202720040407,0.58197351680765,-0.3707581758499146,-0.9159205555915833,-0.1537138968706131,-26.64945220947266,-41.54147338867188,13.83566284179688,2
1596230201.866998,106,0,102534.0388026667,2.224940177111819,-1.187066964871062,1.156205378307791,0.03691881150007248,-0.0207139253616333,0.0008159126155078411,-0.04362821578979492,0.02830016613006592,0.008989691734313965,2,0.6204858804942187,0.1989821849507193,0.4873910793568536,0.5812516515400883,-0.3735211193561554,-0.9152811765670776,-0.150806725025177,-26.60026550292969,-41.62275695800781,13.95819091796875,2
1596230201.884039,107,0,102534.0689006667,2.227719779159845,-1.188154915961162,1.157007769576483,0.03421973437070847,0.132204532623291,0.01627147011458874,-0.06064760684967041,0.03044319152832031,0.07084548473358154,2,0.6204868886209595,0.1998325217415628,0.4876148855339731,0.5807709068345026,-0.3730034530162811,-0.9156041145324707,-0.1501259654760361,-26.95059204101562,-41.59962463378906,14.04666137695312,2
1596230201.928435,108,0,102534.0989986667,2.231660354869669,-1.187398420587686,1.15736021478401,-0.02392835356295109,0.139704093337059,0.03638794273138046,-0.01919633150100708,0.0244680643081665,0.04029303789138794,2,0.6199123648107207,0.2014075983500125,0.4888845804108281,0.5797719544230262,-0.3725902438163757,-0.915745735168457,-0.1502872854471207,-26.8521728515625,-41.44243621826172,14.06564331054688,2
1596230201.944141,109,0,102534.1290966667,2.232596151161988,-1.181547045042212,1.156579430311149,-0.03648091107606888,0.356682151556015,0.01396044250577688,0.03021317720413208,-0.0009813904762268066,0.01472938060760498,2,0.6183719304898875,0.2030961927267988,0.4912063508288338,0.5788648098533888,-0.3723659515380859,-0.915431797504425,-0.1527361869812012,-27.00252532958984,-41.39687347412109,13.83236694335938,2
1596230201.990028,110,0,102534.1591946667,2.232206175792705,-1.171867294469501,1.154256385290587,-0.02105891890823841,0.2376463413238525,0.1119030490517616,0.03205543756484985,0.004629731178283691,-0.007582306861877441,2,0.6159865252665653,0.2048929626692754,0.494791800575487,0.5777201300085844,-0.3728285729885101,-0.9144943356513977,-0.1571589559316635,-27.33720397949219,-41.30725860595703,13.55441284179688,2
1596230202.004423,111,0,102534.1892926667,2.237247274544413,-1.168707387381274,1.151398958707794,0.0655967965722084,0.3473075032234192,0.08277016133069992,0.03909790515899658,-0.01796919107437134,-0.05186188220977783,2,0.6146331642367915,0.2062689956290108,0.4980912686663032,0.5758336628307417,-0.374733567237854,-0.9133344888687134,-0.1593583524227142,-27.39820098876953,-41.10263061523438,13.3699951171875,2
1596230202.047137,112,0,102534.2193896667,2.243403773578617,-1.16430265388388,1.150102754996068,0.0492798276245594,0.1850066781044006,0.07770577073097229,0.01545187830924988,0.02415871620178223,-0.06293034553527832,2,0.6128704401268371,0.208931054727257,0.5016075513788623,0.5736963915930277,-0.3751148879528046,-0.9128059148788452,-0.161475270986557,-27.79615020751953,-41.251220703125,13.19757080078125,2
1596230202.064604,113,0,102534.2494875417,2.249878771665873,-1.168390379770454,1.149021848510529,0.07325580716133118,-0.01440716348588467,0.04149267822504044,-0.003424376249313354,0.04344034194946289,-0.006248176097869873,2,0.6132015747022885,0.2093331322578449,0.5025390691186173,0.572379308197284,-0.3766795992851257,-0.9123639464378357,-0.1603269428014755,-27.85635375976562,-41.27465057373047,13.23501586914062,2
1596230202.107466,114,0,102534.2795855417,2.253828057448941,-1.172599451526186,1.149717735655757,0.05735225230455399,-0.07487700134515762,-0.02329760417342186,-0.002711564302444458,0.01052594184875488,0.02601218223571777,2,0.6138556367874717,0.2096053462466703,0.5021657640507369,0.5719059194775802,-0.3767654895782471,-0.912648618221283,-0.1584937125444412,-27.85266876220703,-41.1641845703125,13.4630126953125,2
1596230202.12477,115,0,102534.3096835417,2.254486024345156,-1.177181252170593,1.15055237831922,0.02463513985276222,-0.13222336769104,-0.03312574699521065,-0.05161237716674805,0.02806782722473145,0.01319223642349243,2,0.6149470504109906,0.2088140632628576,0.5006925410724289,0.5723144392993399,-0.3767842054367065,-0.9129894375801086,-0.1564736217260361,-27.68509674072266,-40.92923736572266,13.44906616210938,2
1596230202.169309,116,0,102534.3397815417,2.254724820502482,-1.179520549760913,1.151610220612891,0.02223210781812668,-0.01551767066121101,-0.0209229551255703,-0.05420726537704468,0.01487839221954346,0.03394383192062378,2,0.6155209801841002,0.2086196814266262,0.499719469556639,0.5726188880418114,-0.3762564957141876,-0.9134204983711243,-0.1552235037088394,-27.82833862304688,-41.18437194824219,13.60162353515625,2
1596230202.184987,117,0,102534.3698795417,2.258311129208858,-1.183884731509314,1.152858611849077,0.03862648084759712,-0.08863696455955505,-0.02193827927112579,-0.008162617683410645,0.0108453631401062,0.0135466456413269,2,0.6162512486753078,0.2089488611525298,0.4990219556347484,0.5723215808395321,-0.3758739233016968,-0.9139279127120972,-0.1531495451927185,-27.78842926025391,-41.23672485351562,13.76034545898438,2
1596230202.229061,118,0,102534.3999775417,2.257268494899592,-1.187661380541328,1.152693991344915,-0.01326363906264305,-0.07418181002140045,0.02812094800174236,0.006615549325942993,0.02008575201034546,0.03325116634368896,2,0.6172989694839404,0.2074836336894019,0.4976087311666174,0.5729555595435682,-0.3765889108181,-0.913861095905304,-0.1517850458621979,-27.64380645751953,-41.42604064941406,13.79129028320312,2
1596230202.245084,119,0,102534.4300755417,2.258300820397582,-1.190004718967262,1.151364687206373,-0.01004835683852434,-0.01334181800484657,0.0194799117743969,-0.009093880653381348,0.01625716686248779,0.0114363431930542,2,0.6177608730801917,0.2066268817722742,0.4975857293586726,0.5727874677845931,-0.3780713975429535,-0.9133205413818359,-0.1513536721467972,-27.48339080810547,-41.10532379150391,13.77902221679688,2
