loggingTime,loggingSample,identifierForVendor,motionTimestamp_sinceReboot,motionYaw,motionRoll,motionPitch,motionRotationRateX,motionRotationRateY,motionRotationRateZ,motionUserAccelerationX,motionUserAccelerationY,motionUserAccelerationZ,motionAttitudeReferenceFrame,motionQuaternionX,motionQuaternionY,motionQuaternionZ,motionQuaternionW,motionGravityX,motionGravityY,motionGravityZ,motionMagneticFieldX,motionMagneticFieldY,motionMagneticFieldZ,motionMagneticFieldCalibrationAccuracy
1596230032.322834,1,0,102364.4905686667,-0.5345333501103327,0.5400956310373866,1.333284152800361,0.1550152599811554,-0.3315681219100952,-0.2002281844615936,-0.004513919353485107,0.02551001310348511,-0.02709293365478516,2,0.6301530544813813,0.04483178657670364,-0.0409263657396205,0.7740944270039122,0.1209878176450729,-0.9719263315200806,-0.2017944753170013,-10.5584716796875,-49.25287628173828,8.370208740234375,2
1596230032.336488,2,0,102364.5206656667,-0.5595693110824369,0.5566216745372599,1.33700600003028,0.06104554235935211,-0.2486702650785446,0.04056954383850098,0.1105465292930603,0.0389178991317749,0.0006830096244812012,2,0.6323246293740995,0.04263832360227243,-0.04470839262355447,0.7722361506292478,0.1223941445350647,-0.972795307636261,-0.1966950744390488,-10.17822265625,-49.23372650146484,8.743865966796875,2
1596230032.366319,3,0,102364.5507626667,-0.5523663815559924,0.5426272569486574,1.338414347822866,0.08438260108232498,-0.168764740228653,0.03861843794584274,-0.04261183738708496,-0.04092210531234741,-0.00843358039855957,2,0.6323383313824311,0.03925194598961793,-0.04609208804793319,0.7723231025810917,0.1189219579100609,-0.9731205701828003,-0.1972150355577469,-10.11437225341797,-49.16942596435547,8.649017333984375,2
1596230032.396565,4,0,102364.5808596667,-0.5621126770827092,0.5489604592097139,1.339780136934786,0.03191819787025452,-0.03303912281990051,-0.09519064426422119,-0.08301305770874023,0.05511373281478882,0.01401877403259277,2,0.6331400048957661,0.03836146552398462,-0.04759944807543198,0.7716193776182932,0.1194751262664795,-0.9734342098236084,-0.1953242570161819,-9.977165222167969,-49.06212615966797,8.94610595703125,2
1596230032.426651,5,0,102364.6109566667,-0.5754526696585209,0.5633976744892295,1.339146369461384,0.06638503819704056,0.02298506908118725,-0.05126447975635529,0.002507418394088745,-0.005824565887451172,0.01833248138427734,2,0.6335328611186229,0.03982434145297636,-0.04829134752175734,0.7711796173881346,0.1226117536425591,-0.973288893699646,-0.1941002756357193,-10.0113525390625,-49.12567138671875,8.95391845703125,2
1596230032.456714,6,0,102364.6410536667,-0.5786242193938869,0.5645569170285474,1.341295952986163,0.07367464900016785,-0.1041114926338196,0.06315729767084122,0.02401348948478699,-0.004365861415863037,-0.02396243810653687,2,0.6343461054106452,0.03885761106049251,-0.04873919743066829,0.7705320062913638,0.1217171028256416,-0.9737801551818848,-0.1921902149915695,-9.966606140136719,-48.89804077148438,9.215728759765625,2
1596230032.492196,7,0,102364.6711506667,-0.5859440740075609,0.5679662350072587,1.343574608350693,0.135870486497879,-0.177155077457428,-0.07752137631177902,-0.0511232316493988,0.05299592018127441,0.001780211925506592,2,0.6353337819891562,0.03741133220600959,-0.05004146678329274,0.7697058504930773,0.1211775094270706,-0.9742960333824158,-0.1899027526378632,-9.881889343261719,-49.01318359375,9.182586669921875,2
1596230032.516942,8,0,102364.7012486667,-0.5932705526452401,0.5736096310294123,1.346073570039749,0.02773835510015488,0.05887548252940178,0.08978654444217682,0.03322291374206543,0.01765936613082886,-0.01620149612426758,2,0.6364452538847171,0.03677042544142231,-0.05058490541426569,0.768782527129966,0.1209259703755379,-0.974855899810791,-0.1871707439422607,-9.907684326171875,-49.04542541503906,9.223358154296875,2
1596230032.550888,9,0,102364.7313456667,-0.5904270492054202,0.5704603282437082,1.351054052741519,0.2307445108890533,0.009425537660717964,0.06098132953047752,0.004848301410675049,0.003635406494140625,-0.1270163059234619,2,0.6379723264994948,0.03550284313161514,-0.04953608342865284,0.7676438015174145,0.1177123785018921,-0.9759536385536194,-0.1834617108106613,-9.83441162109375,-48.86833190917969,9.543609619140625,2
1596230032.577107,10,0,102364.7614426667,-0.6123794972997231,0.5894636240148464,1.357335806693338,0.299132913351059,-0.2022386342287064,-0.0273771733045578,0.04794496297836304,0.02619832754135132,-0.05687904357910156,2,0.6409066142271529,0.03453408936743183,-0.05064550234154858,0.7651673826372832,0.1177667900919914,-0.977303683757782,-0.1760922223329544,-9.844390869140625,-49.00531005859375,9.963836669921875,2
1596230032.610111,11,0,102364.7915396667,-0.6360572936734479,0.6028655836406112,1.367484201814416,0.434203714132309,-0.3878498077392578,0.1209325790405273,0.005935311317443848,0.0002498626708984375,-0.1087749004364014,2,0.6449345987049265,0.0299886110805683,-0.05333644752484057,0.7617843418403007,0.1144867464900017,-0.9794031977653503,-0.1663201004266739,-9.840347290039062,-48.87142181396484,10.67120361328125,2
1596230032.637332,12,0,102364.8216366667,-0.6526664950325599,0.6118012694836509,1.379544665623499,0.3595320582389832,-0.05414807051420212,0.09575147926807404,-0.1029551327228546,0.05126023292541504,-0.03146523237228394,2,0.6492645968997558,0.02551665311284287,-0.05427871284518998,0.758194044059584,0.1091756448149681,-0.9817670583724976,-0.1556087732315063,-9.965438842773438,-48.81179809570312,11.05975341796875,2
1596230032.668437,13,0,102364.8517336667,-0.7028219932308938,0.6594643393632406,1.389890300940962,0.5733203291893005,-0.09688984602689743,-0.2029057145118713,-0.2867238819599152,0.05626672506332397,-0.1195828914642334,2,0.65443072181257,0.02495419014963435,-0.05548494642161467,0.753670491394968,0.1102365776896477,-0.9836810827255249,-0.1421954333782196,-9.88824462890625,-48.41063690185547,11.72415161132812,2
1596230032.697523,14,0,102364.8818306667,-0.8122263374219936,0.7698621826911741,1.397914551946157,0.6544031500816345,0.2995820641517639,-0.3421763777732849,-0.203239381313324,0.1383559703826904,0.02182203531265259,2,0.6613864402826097,0.02848868541498234,-0.05833059165192678,0.7472308118542395,0.1197333708405495,-0.9850931167602539,-0.1235127449035645,-9.611381530761719,-48.43488311767578,12.4287109375,2
1596230032.729555,15,0,102364.9119276667,-0.9319960399977062,0.9028673524232684,1.405294012371157,0.68651282787323,0.6390684843063354,-0.2168516516685486,-0.1195352077484131,0.02847027778625488,0.06500011682510376,2,0.6690845657171222,0.03614665751376689,-0.05667254045069225,0.7401402013713094,0.1293446272611618,-0.9863356947898865,-0.1020385250449181,-9.316261291503906,-48.36928558349609,13.44781494140625,2
1596230032.757703,16,0,102364.9420256667,-1.054622645145672,1.046169592318356,1.410818611881506,0.5225246548652649,0.9126138687133789,-0.1972141563892365,-0.05872023105621338,-0.03083348274230957,0.1903246641159058,2,0.6767460144997356,0.04604187387408379,-0.05199995506756583,0.7329331558968967,0.1378727555274963,-0.9872308373451233,-0.07978995889425278,-9.31011962890625,-48.07635498046875,14.01748657226562,2
1596230032.789654,17,0,102364.9721226667,-1.147878825760952,1.171349469801342,1.412643720495428,0.4109800159931183,1.015562295913696,-0.1226309463381767,0.2123415172100067,0.009880304336547852,0.1285210251808167,2,0.6825229792115234,0.0594732110873315,-0.04292919738697309,0.7271741953704823,0.145095095038414,-0.9875199198722839,-0.06125063821673393,-9.460952758789062,-47.95525360107422,14.60955810546875,2
1596230032.818263,18,0,102365.0022196667,-1.209730556590263,1.252323334385598,1.415820620026901,0.3287973701953888,0.4048340320587158,0.1316823959350586,0.2528451979160309,-0.1244139671325684,-0.1462146639823914,2,0.6865828564925193,0.06662051839932639,-0.03659551666133426,0.7230673589264183,0.1465939581394196,-0.9880152940750122,-0.0483313761651516,-9.696090698242188,-47.76764678955078,14.750244140625,2
1596230032.851087,19,0,102365.0323166667,-1.241568536605686,1.293166111406109,1.421369356947784,0.04742036387324333,0.1853383928537369,0.02214628830552101,-0.03316023945808411,-0.07490122318267822,-0.007802963256835938,2,0.6891287158929349,0.06855973001117591,-0.03218055638512646,0.7206702505327973,0.1431710124015808,-0.9888565540313721,-0.04080235213041306,-9.938224792480469,-47.54216766357422,15.1591796875,2
1596230032.878074,20,0,102365.0624136667,-1.283458265326376,1.34314117743179,1.419744440888102,0.3921593129634857,0.4210772216320038,-0.127084493637085,-0.06966656446456909,0.09292805194854736,-0.1162064671516418,2,0.6911898550050315,0.07263302466244451,-0.0305573884693045,0.7183643415695136,0.1465958654880524,-0.9886133670806885,-0.03396205604076385,-10.03736877441406,-47.57012939453125,15.24288940429688,2
1596230032.910678,21,0,102365.092510375,-1.357761483514245,1.432260852092702,1.419650010878915,0.2514238953590393,0.4674971997737885,-0.03173281252384186,0.08267340064048767,0.03625798225402832,0.1086515784263611,2,0.695262906544482,0.07882300604917203,-0.02630650625193387,0.713935858996385,0.1491290181875229,-0.9885991215705872,-0.02079284936189651,-10.09136962890625,-47.41606903076172,15.81011962890625,2
1596230032.938299,22,0,102365.122607375,-1.388667940281181,1.468790884769891,1.422098791698044,0.08645902574062347,-0.157061904668808,0.2208190560340881,0.1940048635005951,-0.09897589683532715,-0.0662304162979126,2,0.697150756494613,0.08023655195372736,-0.02375269688863113,0.7120242909214102,0.1473791748285294,-0.988964855670929,-0.01508583687245846,-10.24842834472656,-47.15576171875,15.87655639648438,2
1596230032.972819,23,0,102365.152704375,-1.414700014595747,1.478675917157225,1.431481487721899,0.3090207874774933,-0.7352542281150818,0.2002985924482346,-0.1166537702083588,0.1015924215316772,-0.1636509895324707,2,0.6989387959524112,0.07139680391857495,-0.0262764080536339,0.7111234074659915,0.138275071978569,-0.9903113842010498,-0.01277411170303822,-10.64919281005859,-47.22980499267578,16.2039794921875,2
1596230032.99854,24,0,102365.182801375,-1.477622186644399,1.522148277335282,1.428461246718347,0.1720347553491592,-0.2868790626525879,-0.430767834186554,-0.332299679517746,0.05972015857696533,0.2494916915893555,2,0.701579642755785,0.06585515109528345,-0.03445274228221562,0.7087044528038238,0.1416863650083542,-0.9898874759674072,-0.006898208055645227,-10.21126556396484,-46.8685302734375,16.78134155273438,2
1596230033.031332,25,0,102365.212899375,-1.507022178350694,1.55410771394403,1.416458602340499,0.2079472839832306,0.19861701130867,-0.1718707829713821,-0.03854110836982727,0.032440185546875,0.1338639259338379,2,0.7026145004537716,0.07106466094698374,-0.03787231160340959,0.7069995862461238,0.1537046432495117,-0.9881135821342468,-0.002565355505794287,-9.694366455078125,-46.96615600585938,16.82058715820312,2
1596230033.05863,26,0,102365.242996375,-1.558463524297572,1.603443034939642,1.417777537663295,0.155829444527626,-0.2780632078647614,0.06354333460330963,-0.08449238538742065,-0.02024185657501221,-0.1150656938552856,2,0.7054088475874956,0.06989967982817841,-0.03819007932168633,0.7043109843804493,0.1523414701223373,-0.9883154630661011,0.004975215066224337,-9.359962463378906,-46.70529174804688,17.36282348632812,2
1596230033.090866,27,0,102365.273093375,-1.583995617746042,1.625475658067848,1.409501796103368,0.2363590747117996,0.1817598789930344,-0.6022418737411499,-0.2667628824710846,0.1379455327987671,0.1717003583908081,2,0.7065899133350079,0.0715481272686822,-0.04231473841420136,0.7027239391334157,0.1603554934263229,-0.9870201945304871,0.008776879869401455,-9.384735107421875,-46.81776428222656,17.53570556640625,2
1596230033.118918,28,0,102365.303190375,-1.620819452061206,1.674947304539723,1.389976399301103,0.1978015303611755,0.5528742671012878,-0.4775712192058563,0.07410129904747009,0.03798878192901611,0.1361960172653198,2,0.70887748287171,0.08270931197699008,-0.04459611456222812,0.6990443501710961,0.1788613200187683,-0.9836965799331665,0.01869623176753521,-8.593490600585938,-46.80422973632812,17.78912353515625,2
1596230033.149008,29,0,102365.333287375,-1.642915302416418,1.702533969521137,1.382868278243227,0.1705859899520874,-0.2600652873516083,-0.08097494393587112,0.2005454301834106,-0.1712026000022888,-0.2134006023406982,2,0.7104254309596464,0.08698292538232261,-0.04501834441525457,0.6969240154339558,0.1852053254842758,-0.9823934435844421,0.02454064413905144,-8.293922424316406,-46.84858703613281,17.86590576171875,2
1596230033.179067,30,0,102365.363384375,-1.663352517223711,1.709858206628531,1.377086325724771,0.1345062553882599,-0.3946351110935211,-0.2424032092094421,0.1471536159515381,0.07785409688949585,-0.02138888835906982,2,0.7115037717292978,0.084285236734712,-0.0515578237476631,0.6957011177732764,0.1906418353319168,-0.9812968373298645,0.02668323740363121,-7.970314025878906,-46.64632415771484,18.15386962890625,2
1596230033.209067,31,0,102365.393481375,-1.668242668348838,1.704414566947016,1.372510391504615,-0.0107928030192852,-0.1937172263860703,-0.05142955482006073,-0.08305507898330688,-0.0112147331237793,0.0823596715927124,2,0.7115874725134339,0.08224853484178699,-0.05679812848064189,0.6954512508769728,0.1952333599328995,-0.9804056882858276,0.02624310553073883,-7.579071044921875,-46.58946990966797,18.49221801757812,2
1596230033.239297,32,0,102365.423578375,-1.672046590710793,1.709550870711157,1.368123888298932,0.02684272266924381,0.1431566625833511,-0.2831357419490814,-0.1028552055358887,-0.06327784061431885,0.1458045244216919,2,0.71191909035266,0.08420939148845993,-0.05782745655047286,0.6947919998116083,0.199352964758873,-0.9795321226119995,0.0278400257229805,-7.732986450195312,-46.89459991455078,18.46441650390625,2
1596230033.270367,33,0,102365.453675375,-1.650095719350457,1.688689174137064,1.359347194595852,-0.1271143704652786,0.02824459224939346,-0.2522455751895905,-0.06370460987091064,0.05974090099334717,0.02052211761474609,2,0.7103729071809016,0.08782475909794701,-0.06068912564677342,0.6956823716393272,0.2084200978279114,-0.9777278304100037,0.02468571066856384,-7.392005920410156,-46.86621856689453,18.50445556640625,2
1596230033.299365,34,0,102365.483773375,-1.6353738336176,1.677294003633963,1.353739262694649,-0.1435021162033081,0.1645583510398865,-0.2393587082624435,-0.1527495086193085,0.01872283220291138,0.116990327835083,2,0.7093355556061631,0.09104322114849539,-0.06157774174809569,0.6962487092677626,0.2141360193490982,-0.976535439491272,0.02289159782230854,-7.07196044921875,-46.74959564208984,18.30075073242188,2
1596230033.330483,35,0,102365.513870375,-1.596838858258484,1.647965403783959,1.341467919011414,-0.2781723141670227,0.359150618314743,-0.582922101020813,-0.1437616944313049,0.01607662439346313,0.1191030740737915,2,0.7064070543714269,0.09874994981015101,-0.06283933382308377,0.6980607281340795,0.2266472280025482,-0.9738192558288574,0.01752495765686035,-6.522315979003906,-46.754638671875,18.09326171875,2
1596230033.359655,36,0,102365.543967375,-1.56178357125354,1.622968935044055,1.326286840592852,-0.2438335418701172,0.1475567370653152,-0.3785495758056641,0.05498066544532776,0.006056606769561768,-0.02264320850372314,2,0.7033613787174348,0.1076796718698026,-0.06474469982380401,0.6996400366351792,0.2417518645524979,-0.9702562093734741,0.01262428145855665,-5.718994140625,-47.10951232910156,17.46603393554688,2
1596230033.390739,37,0,102365.574064375,-1.523873930281089,1.585969488467678,1.316732748700296,-0.3891441524028778,-0.2302433103322983,-0.3729707896709442,0.03546682000160217,-0.01561909914016724,0.05765128135681152,2,0.6996490435604306,0.1113460722822491,-0.06779867780117968,0.7024931438989053,0.251310259103775,-0.9678990840911865,0.003813463961705565,-5.4443359375,-47.34487915039062,17.1029052734375,2
1596230033.419841,38,0,102365.604161375,-1.474581508263442,1.522309531133715,1.299564062835957,-0.4316599369049072,-0.5949320793151855,-0.7843276858329773,-0.1128061413764954,-0.02270019054412842,-0.021270751953125,2,0.6935039724195911,0.1120692498562109,-0.07863348924380231,0.7073256336698774,0.2676041722297668,-0.9634414911270142,-0.01298544649034739,-4.685371398925781,-47.51348114013672,16.95840454101562,2
1596230033.449801,39,0,102365.634258375,-1.423046145646299,1.460168193478695,1.27476465672414,-0.7529438138008118,-0.3325293660163879,-0.6362622380256653,0.08249518275260925,0.01450204849243164,0.2510019540786743,2,0.6858200141847106,0.1163925274742739,-0.09043178479561975,0.7126890680964316,0.2899432182312012,-0.9565016627311707,-0.03220737352967262,-3.784278869628906,-47.60298156738281,16.40463256835938,2
1596230033.480009,40,0,102365.664355375,-1.340866808648155,1.366800278658093,1.257723274445792,-0.919758141040802,-0.7680439352989197,-0.3309765160083771,0.09868395328521729,-0.0720062255859375,-0.0503612756729126,2,0.6746723819027022,0.1167085655463088,-0.09859555263277281,0.7221323494365072,0.3015974462032318,-0.9513916373252869,-0.06239257380366325,-2.115715026855469,-48.12328338623047,15.06729125976562,2
1596230033.509988,41,0,102365.694452375,-1.280258201207262,1.287502891961272,1.237218224203835,-0.7544525265693665,-0.3937951922416687,-0.6272534728050232,0.08253014087677002,0.00804603099822998,0.2573585510253906,2,0.664068330803233,0.1151186458638085,-0.1100669760797657,0.7305109341030142,0.3143748342990875,-0.9448768496513367,-0.09152189642190933,-0.8796234130859375,-48.35080718994141,13.52593994140625,2
1596230033.540279,42,0,102365.724549375,-1.194811607094712,1.21117631752038,1.217609850946234,-1.398230075836182,0.6643069982528687,0.0273035503923893,0.0169549286365509,-0.04567205905914307,0.5080761313438416,2,0.6514204572239291,0.1216099486482796,-0.1102184400613521,0.7407524718231971,0.323762834072113,-0.9382753372192383,-0.1217248141765594,-0.4812088012695312,-48.71502685546875,12.66659545898438,2
1596230033.570576,43,0,102365.754646375,-1.096532440839814,1.148500179839984,1.208372836288923,-0.968542754650116,0.911830723285675,0.1992144137620926,0.07491451501846313,-0.02742022275924683,-0.03917217254638672,2,0.64006110742141,0.1329149154394927,-0.09677392936499901,0.750526573937615,0.3233948051929474,-0.9350403547286987,-0.1453108042478561,-1.2386474609375,-49.44744873046875,10.25741577148438,2
1596230033.600461,44,0,102365.784743375,-1.016073402346985,1.089526382572064,1.197096599568576,-1.086391806602478,0.05261984467506409,-0.02251200750470161,0.05115312337875366,0.1403273940086365,-0.1911237239837646,2,0.6292912217805903,0.1396350180958131,-0.08861142593451998,0.7593698850510534,0.3235940337181091,-0.9309830665588379,-0.1689892411231995,-1.59326171875,-49.53125762939453,9.543182373046875,2
1596230033.630436,45,0,102365.814841375,-0.9493257268095264,1.010215465604861,1.182032949494795,-0.9409700632095337,-0.8418614268302917,-0.05840244144201279,-0.09506770968437195,0.09277743101119995,-0.1506685018539429,2,0.6173617518621027,0.1345348625547156,-0.09229669531103191,0.7695753306143186,0.32103031873703,-0.9253785014152527,-0.2015296816825867,-1.221206665039062,-49.78463745117188,7.5260009765625,2
1596230033.66061,46,0,102365.844938375,-0.903415155719666,0.9611424924231133,1.167870142943631,-0.548622190952301,0.0668613463640213,-0.005229002796113491,-0.2081551253795624,0.03968155384063721,0.01732701063156128,2,0.6081855563937396,0.1336111528186372,-0.09362288893821707,0.7768481649716106,0.3214713335037231,-0.9199175238609314,-0.2245167791843414,-1.125701904296875,-50.02012634277344,6.57550048828125,2
1596230033.690656,47,0,102365.875035375,-0.8613462101244218,0.9184173813946269,1.15384093681385,-0.6208090782165527,-0.2656124532222748,-0.2356633096933365,-0.3310904800891876,0.1953307390213013,-0.2569469213485718,2,0.5993860424214027,0.1334520554976065,-0.09397581426727719,0.7836424629757825,0.3218129873275757,-0.9143261909484863,-0.2458538413047791,-1.084877014160156,-50.09725189208984,5.27960205078125,2
1596230033.720837,48,0,102365.905132375,-0.8687577994078531,0.912955662968376,1.134448277364219,-0.2812733054161072,-0.2641236186027527,-0.8359593749046326,-0.3618118166923523,0.09787279367446899,-0.2291088104248047,2,0.5939452929276903,0.1342690258740802,-0.1037597674528181,0.7864062510014764,0.3344352543354034,-0.9063011407852173,-0.25840163230896,-0.8834991455078125,-50.0406494140625,4.890777587890625,2
1596230033.750817,49,0,102365.935229375,-0.8891326796360258,0.9327737166986854,1.109999552775245,-0.1180755123496056,-0.01873451098799706,-0.7548189759254456,-0.05804091691970825,0.01667773723602295,-0.1192927360534668,2,0.5892726159150294,0.1426030123241112,-0.1125619548860579,0.7872432974467207,0.3571859002113342,-0.8956984877586365,-0.2648443281650543,0.658172607421875,-50.093505859375,4.60479736328125,2
1596230033.780949,50,0,102365.965326375,-0.9173832670475549,0.9530174221869965,1.092479567820028,0.1172203049063683,-0.08700555562973022,-0.6395723223686218,0.3296987414360046,-0.03379124402999878,-0.3181724548339844,2,0.5874325177717374,0.1470320065025115,-0.12255331583649,0.786311145040123,0.3752094209194183,-0.88777095079422,-0.266609251499176,1.285957336425781,-50.05553436279297,4.217803955078125,2
1596230033.811012,51,0,102365.995423375,-0.9411356550106738,0.9670878005680013,1.085195467150844,-0.03005893528461456,-0.7977200150489807,-0.1283722370862961,0.5676046013832092,0.0222507119178772,-0.2198604941368103,2,0.5879895360631557,0.1475953216884887,-0.1297831429368066,0.78462742660292,0.3842369318008423,-0.884394645690918,-0.2649678587913513,2.518119812011719,-49.92025756835938,4.334503173828125,2
1596230033.841182,52,0,102366.025520375,-0.9321841946920026,0.9271866145688915,1.08779380834796,-0.02895102277398109,-1.066167116165161,0.3337464928627014,0.2060249447822571,-0.191672146320343,0.1926054358482361,2,0.5854408571701922,0.1338161417198947,-0.1372474096883008,0.787727959661336,0.371521919965744,-0.8856044411659241,-0.2787044942378998,2.646171569824219,-49.90676116943359,4.429656982421875,2
1596230033.871225,53,0,102366.055617375,-0.9117611440635428,0.8887801956884176,1.087600597787843,-0.4487196207046509,-0.06746798753738403,-0.06233536079525948,-0.3889283835887909,-0.04610252380371094,0.4952327013015747,2,0.5813978311544972,0.1246615764937842,-0.1404392654749049,0.7916519343845986,0.3606793284416199,-0.8855146765708923,-0.2928721010684967,2.291610717773438,-50.00438690185547,4.068572998046875,2
1596230033.901731,54,0,102366.085714375,-0.8998400820524337,0.8935940297020211,1.074916403727271,-0.3292800486087799,0.8319664001464844,-0.1980228275060654,-0.259530782699585,0.2027966976165771,0.1163929104804993,2,0.5771669819297107,0.1334344770000314,-0.1377160360682615,0.7937932531665589,0.3708090782165527,-0.8795503973960876,-0.2981470227241516,2.324600219726562,-50.01106262207031,3.35992431640625,2
1596230033.931443,55,0,102366.115811375,-0.8937709171546124,0.9168335199165769,1.070280242742588,-0.1063514202833176,0.9552975296974182,-0.01594815216958523,-0.004849433898925781,-0.02919983863830566,-0.1100339889526367,2,0.5769077425624604,0.1456493897696904,-0.1298500254513447,0.7931599002554482,0.3808694779872894,-0.8773350119590759,-0.2919274270534515,2.762489318847656,-49.86963653564453,3.217803955078125,2
1596230033.961564,56,0,102366.145908375,-0.8864034568281809,0.9378697081430986,1.063221204756224,-0.3685075342655182,0.7481457591056824,-0.1509542167186737,0.1768480241298676,-0.1348431706428528,0.0695076584815979,2,0.5755689996326773,0.1580080531763628,-0.122785501172363,0.7928918230745051,0.3919096291065216,-0.8739256858825684,-0.287507563829422,2.601371765136719,-49.94414520263672,2.979766845703125,2
1596230033.991697,57,0,102366.176005375,-0.8705024400416616,0.9398607519035777,1.058742163407071,-0.1903381049633026,0.3846660852432251,0.2098917067050934,0.1306192874908447,0.056468665599823,0.07817953824996948,2,0.5730648059060667,0.164560771283444,-0.1171251935716163,0.7942280578162662,0.3956382274627686,-0.8717398643493652,-0.2890329658985138,2.434745788574219,-50.23037719726562,2.51885986328125,2
1596230034.021839,58,0,102366.206102375,-0.8536245516634122,0.9388828469984097,1.059002974077824,-0.2841282784938812,0.610227108001709,0.04678766429424286,0.02576038241386414,0.01997733116149902,0.1171467304229736,2,0.5716806825291921,0.1689334081317009,-0.1106274870627847,0.7952385093046073,0.3951719105243683,-0.8718676567077637,-0.2892853915691376,2.164886474609375,-49.97689056396484,2.055938720703125,2
1596230034.051769,59,0,102366.236199375,-0.8316903395904898,0.9360584599127612,1.052448406564027,-0.4876540899276733,0.4185069501399994,0.1295727044343948,0.001946061849594116,-0.01640629768371582,0.1190493702888489,2,0.5676386329181357,0.1757698612698299,-0.1044675762212163,0.797482175177218,0.3989463150501251,-0.8686388731002808,-0.2937826812267303,2.362930297851562,-49.96458435058594,1.90203857421875,2
1596230034.081976,60,0,102366.266297375,-0.8054083920780759,0.9262664718840603,1.049940017341398,-0.2059444040060043,0.6017554998397827,0.1373564153909683,-0.08524677157402039,0.07394522428512573,-0.2343379259109497,2,0.5640302047442812,0.1799397960084306,-0.09741218544843061,0.8000015144269468,0.3977910578250885,-0.8673933744430542,-0.2989831864833832,1.95654296875,-49.98844146728516,1.354522705078125,2
1596230034.112061,61,0,102366.296394375,-0.7986394012730413,0.9373370771688283,1.047779727299101,-0.1205107048153877,0.4032509624958038,-0.07766032963991165,-0.07008659839630127,0.07015293836593628,-0.2244820594787598,2,0.5632600125399199,0.1868243483957942,-0.09216060155191436,0.799588124197123,0.4025858342647552,-0.8663163185119629,-0.2956696450710297,1.803565979003906,-50.01737976074219,1.05828857421875,2
1596230034.142191,62,0,102366.326491375,-0.801312231217142,0.9438387473526857,1.044590715771936,0.05699817463755608,0.005183324217796326,-0.1808122396469116,-0.1200830638408661,-0.03365421295166016,-0.1050620675086975,2,0.5628176286769062,0.1894826575762097,-0.09225165797919882,0.7992635427280894,0.4067348837852478,-0.864719033241272,-0.2946652770042419,2.054611206054688,-50.13727569580078,1.100860595703125,2
1596230034.172178,63,0,102366.356588375,-0.8106112255421413,0.954943099223444,1.040208119320412,0.1040947362780571,0.1725571751594543,-0.126783013343811,0.1877651512622833,0.08152282238006592,-0.240178108215332,2,0.5628633030616956,0.1924223992890043,-0.09402026878806014,0.7983224073208404,0.41307133436203,-0.862509548664093,-0.2923170328140259,2.439537048339844,-50.02557373046875,1.057403564453125,2
1596230034.202432,64,0,102366.386685375,-0.8222907689665252,0.9657511406707237,1.049082748896006,0.4456311166286469,-0.1201792657375336,0.2749378383159637,0.1188257336616516,0.07853245735168457,-0.190443217754364,2,0.5672136900118787,0.191137037294049,-0.09321110791092457,0.7956425145177979,0.409894734621048,-0.8669664859771729,-0.2834705114364624,2.390052795410156,-50.04286956787109,1.57391357421875,2
1596230034.232382,65,0,102366.416782375,-0.8350472444236663,0.9690782310372215,1.056971694750106,0.215221107006073,-0.3500315845012665,-0.08398019522428513,-0.06022346019744873,-0.09512239694595337,0.03225231170654297,2,0.5709680622096793,0.1867699898730469,-0.09517493718243708,0.7937595242127078,0.4051846265792847,-0.8708710074424744,-0.2782248854637146,1.981193542480469,-50.17655181884766,1.806365966796875,2
1596230034.262495,66,0,102366.446879375,-0.8461174243182485,0.9689674891876233,1.05891465677077,0.18015456199646,-0.2034006863832474,0.05613673105835915,0.009489834308624268,-0.03453987836837769,0.06373590230941772,2,0.5725706028316718,0.1830499459272575,-0.09906434878602366,0.7929954991813536,0.4037582278251648,-0.8718243837356567,-0.277311235666275,1.982757568359375,-50.02243804931641,2.191253662109375,2
1596230034.292493,67,0,102366.476976375,-0.8514019049299334,0.9692286743410561,1.065666632966817,0.2283290177583694,-0.1732049584388733,0.1672078520059586,0.02768057584762573,0.0491904616355896,0.005650103092193604,2,0.5750823885981178,0.1798507095457698,-0.09922447502585852,0.7918890603854534,0.3989681005477905,-0.8751116991043091,-0.2738679349422455,2.101173400878906,-50.10841369628906,2.358612060546875,2
1596230034.322757,68,0,102366.507073375,-0.8592574008949364,0.9699788786289358,1.072711944138564,0.196138322353363,-0.2752993702888489,0.06721361726522446,-0.04323011636734009,-0.009662628173828125,0.008200883865356445,2,0.5779120732576485,0.1760097804413026,-0.1001720002288979,0.7905716914723812,0.3940779268741608,-0.8784993290901184,-0.2700763940811157,2.116775512695312,-50.09230041503906,2.68804931640625,2
1596230034.352785,69,0,102366.537170375,-0.8673021522792478,0.9682798656423268,1.076944866429978,0.2194060534238815,-0.2292410880327225,0.05366402491927147,-0.02932566404342651,-0.002433180809020996,-0.0235324501991272,2,0.5797756566870106,0.1718787358872607,-0.1026718509763088,0.7897950934508869,0.3905512392520905,-0.8805137276649475,-0.2686357796192169,1.811058044433594,-50.12087249755859,2.912750244140625,2
1596230034.383061,70,0,102366.567267375,-0.8763052889865437,0.9711886945907729,1.083508844246692,0.2464184165000916,-0.09629759192466736,0.1330781280994415,0.02792030572891235,0.04479861259460449,-0.01174551248550415,2,0.5826173741703714,0.1686455005310165,-0.1035587804613167,0.7882837668782233,0.3865513205528259,-0.8836061954498291,-0.2642313838005066,1.952133178710938,-50.21430969238281,3.469146728515625,2
1596230034.412914,71,0,102366.597364375,-0.8829880424036314,0.9719200051298855,1.091662821986909,0.220278725028038,-0.2444940060377121,0.1917177736759186,0.06726172566413879,-0.05284786224365234,0.02983266115188599,2,0.5855846425931467,0.1647769901773135,-0.1037086477794146,0.7868822453850958,0.3807805478572845,-0.8873947262763977,-0.2598783373832703,1.634078979492188,-49.97058868408203,3.76348876953125,2
1596230034.443138,72,0,102366.627461375,-0.8834127280003851,0.9639777883574426,1.099146981874503,0.06602447479963303,-0.3137963116168976,0.2095525711774826,0.04037487506866455,-0.07972609996795654,0.09850162267684937,2,0.5873754113166217,0.159499998226051,-0.104123641589798,0.7865800420403957,0.3732383549213409,-0.8908200860023499,-0.2590997517108917,1.322746276855469,-50.07159423828125,3.90643310546875,2
1596230034.473162,73,0,102366.657558375,-0.8788292043684736,0.9517171305845422,1.105887862308774,0.1233424469828606,-0.2130847573280334,0.2261723130941391,-0.04136300086975098,0.03128284215927124,0.05459916591644287,2,0.5883357260909063,0.1542016977329695,-0.1040594650788788,0.7869273101828396,0.3651348650455475,-0.8938626050949097,-0.260165810585022,0.871002197265625,-50.18178558349609,4.012908935546875,2
1596230034.503424,74,0,102366.687656375,-0.8809249620089729,0.9490993765734936,1.114488395721288,0.2240158468484879,-0.1710219234228134,0.2143621146678925,0.009956508874893188,0.05520772933959961,-0.05142855644226074,2,0.5908582225476351,0.1502323592702363,-0.1032841027848135,0.7859065568004918,0.3581897020339966,-0.8976854681968689,-0.2566336095333099,0.60205078125,-50.09365081787109,4.02752685546875,2
1596230034.533639,75,0,102366.717753375,-0.8816888836652254,0.9420845534985105,1.123207473068676,0.1608280539512634,-0.3490499258041382,0.2030122429132462,-0.07159432768821716,-0.05589276552200317,-0.03033965826034546,2,0.5930783083039696,0.1448949277508855,-0.1032600622365539,0.7852394489112779,0.3500370383262634,-0.9014932513237,-0.2545271515846252,0.4121780395507812,-49.88101959228516,4.669769287109375,2
1596230034.563519,76,0,102366.747850375,-0.8893604049548972,0.9375395519092686,1.12815634366195,0.1966463774442673,-0.2786907255649567,-0.07204079627990723,-0.1190916895866394,-0.03168392181396484,0.02668094635009766,2,0.594815534541947,0.1394934061139045,-0.1062597823747954,0.7845029781860684,0.3452759087085724,-0.9036240577697754,-0.2534721493721008,0.37152099609375,-50.16292572021484,4.765625,2
1596230034.593558,77,0,102366.777947375,-0.9025710319009445,0.9478718389236209,1.130920762942743,0.197471022605896,0.1679608225822449,0.1223389208316803,0.05243420600891113,0.009903073310852051,0.08282220363616943,2,0.5970793835094256,0.1388518090808959,-0.10759360087643,0.7827131672525857,0.3458461165428162,-0.9048046469688416,-0.2484327703714371,0.3285903930664062,-50.22653198242188,5.1494140625,2
1596230034.623725,78,0,102366.808044375,-0.9005524982742056,0.9554926275561493,1.143364678635329,0.3201287388801575,0.3809237480163574,0.5172909498214722,0.1682233810424805,0.1655926704406738,-0.116387665271759,2,0.6008630646507843,0.1390231253378622,-0.101063184991802,0.7806551245087938,0.3385084867477417,-0.9100334048271179,-0.2392722964286804,0.2248992919921875,-50.07997894287109,5.161865234375,2
1596230034.653787,79,0,102366.838141375,-0.9094176775191218,0.9701865349708652,1.165298614989662,0.6553760170936584,0.1040062680840492,0.5257915854454041,0.1307331919670105,0.1217897534370422,-0.371042013168335,2,0.6083036430997572,0.1360091204401261,-0.09392568715382793,0.7763028270939187,0.3254392147064209,-0.9189061522483826,-0.2229363918304443,-0.9280242919921875,-50.06035614013672,5.90631103515625,2
1596230034.68391,80,0,102366.868238375,-0.9294710489079125,0.9946958887079864,1.189630059356229,0.6738885045051575,0.3438953459262848,0.5029405355453491,-0.1699976623058319,0.002715826034545898,-0.1932355761528015,2,0.6173414216124571,0.1325280609958139,-0.08725023079389688,0.7705279332833729,0.3119595050811768,-0.928231418132782,-0.2026517689228058,-1.239479064941406,-50.03438568115234,6.473480224609375,2
1596230034.713922,81,0,102366.898335375,-0.9688380849986628,1.04373931948941,1.211531354568527,0.8942162990570068,0.3761228621006012,0.2791556417942047,-0.04540801048278809,0.09836292266845703,-0.158919632434845,2,0.6276507449841904,0.1327857365738478,-0.08068695141663434,0.7628316084920115,0.3038727641105652,-0.9361554980278015,-0.176844984292984,-2.328346252441406,-49.94393920898438,7.8699951171875,2
1596230034.744153,82,0,102366.928432375,-1.024267810482774,1.10465269576249,1.235253157839207,0.9234692454338074,0.2382363528013229,0.5586509108543396,0.1154922246932983,0.05231797695159912,-0.01819139719009399,2,0.6393511152147595,0.1312750094939123,-0.07524747833353862,0.7538798299118792,0.2941502928733826,-0.9442315697669983,-0.1479940414428711,-2.687278747558594,-49.50658416748047,8.987213134765625,2
1596230034.774116,83,0,102366.958529375,-1.069928000954671,1.155036929315978,1.262837651576156,0.7712867259979248,0.2903050482273102,0.6184157133102417,-0.03449049592018127,0.03102189302444458,0.1057956218719482,2,0.6501258517272525,0.1269835716131908,-0.06753244474979703,0.7460904135013207,0.2772916257381439,-0.9529542922973633,-0.1224230974912643,-3.843605041503906,-49.50518798828125,10.59048461914062,2
1596230034.804305,84,0,102366.988626375,-1.129134723994798,1.223516649592046,1.288163677086464,0.900165855884552,0.5420774221420288,0.5035635828971863,-0.1326961517333984,0.07004666328430176,0.02301681041717529,2,0.6610029131864332,0.124968788647798,-0.0589204869978755,0.7375542417397193,0.2622357606887817,-0.9603245854377747,-0.09491590410470963,-4.503700256347656,-49.19312286376953,11.24578857421875,2
1596230034.834339,85,0,102367.018723375,-1.205598961588536,1.313647307033134,1.309219353696107,0.8874406218528748,0.3348987996578217,0.4787555634975433,0.01229268312454224,0.1083130836486816,-0.04450118541717529,2,0.6718099411896107,0.1256453458863094,-0.04993298503270227,0.7282796829234209,0.25010085105896,-0.9659833908081055,-0.06576929986476898,-5.739753723144531,-48.69952392578125,12.8724365234375,2
1596230034.864495,86,0,102367.048820375,-1.302986325033271,1.395560731278574,1.329257466080316,0.9061885476112366,-0.9496804475784302,0.3933334946632385,-0.1033296436071396,-0.1023604869842529,-0.08738726377487183,2,0.6824872147577966,0.11558744123506,-0.05062743813853465,0.7199217834902969,0.2355329990386963,-0.9709710478782654,-0.04170149192214012,-5.994987487792969,-48.38341522216797,13.65621948242188,2
1596230034.894474,87,0,102367.078917375,-1.385630957443696,1.449229311669579,1.338151347564511,0.5115498900413513,-0.762077808380127,0.02816597558557987,-0.2127978503704071,0.0386422872543335,0.1349667310714722,2,0.6894362561867881,0.1034332043838347,-0.05877380613920297,0.7145100880730791,0.2288497239351273,-0.9730600118637085,-0.02795844152569771,-6.263916015625,-48.02095794677734,15.42031860351562,2
1596230034.924728,88,0,102367.109015,-1.47561281318505,1.524249247249389,1.339069180369142,0.8756278157234192,-0.2198758274316788,-0.02856769040226936,-0.2066967636346817,0.1185685396194458,0.0910942554473877,2,0.6963702325664268,0.09861783355469489,-0.0644606292647471,0.7079460619516671,0.2294091433286667,-0.9732711911201477,-0.01068604458123446,-6.02447509765625,-47.74215698242188,16.56607055664062,2
1596230034.955034,89,0,102367.139112,-1.575514786867706,1.622998697446371,1.336696207688703,0.5472745895385742,0.3145979940891266,-0.1150446683168411,-0.0366518497467041,0.02876442670822144,0.202961802482605,2,0.7044203481306753,0.09921619357271835,-0.06587287798415328,0.699720552889187,0.2316516041755676,-0.9727234840393066,0.01210375968366861,-5.975028991699219,-47.36269378662109,17.17391967773438,2
1596230034.984866,90,0,102367.169209,-1.635993229230092,1.689377498416307,1.333700019121297,0.4887306690216064,-0.03452169895172119,0.006143194623291492,0.03602650761604309,-0.09959936141967773,0.1303348541259766,2,0.7095676328856602,0.1020166901240347,-0.0645377029000779,0.6942198983649019,0.2332317680120468,-0.9720240831375122,0.02778726071119308,-6.1151123046875,-47.20180511474609,18.25775146484375,2
1596230035.014911,91,0,102367.199306,-1.677763596393159,1.715947172126502,1.330559504438671,0.1432801634073257,-0.635520339012146,-0.2100944817066193,0.02063025534152985,-0.06106036901473999,0.05428194999694824,2,0.7125367770715316,0.09746173151143464,-0.07065804619706995,0.6912306824508622,0.2354299873113632,-0.9712816476821899,0.03441489487886429,-5.806541442871094,-46.89652252197266,18.52066040039062,2
1596230035.04508,92,0,102367.229403,-1.687585761844674,1.71155175045331,1.321777762483139,0.1838620007038116,-0.3856255114078522,-0.2087582647800446,-0.01996152102947235,0.05151486396789551,-0.0007205009460449219,2,0.7128593034902947,0.09549433127197657,-0.07867940918685018,0.690305672116751,0.2440152615308762,-0.9691547751426697,0.03457510843873024,-5.222320556640625,-46.83181762695312,18.92404174804688,2
1596230035.07505,93,0,102367.259501,-1.71260923434055,1.733665669460459,1.320009546390107,0.1581138521432877,0.2405975311994553,0.06540141254663467,-0.1410025507211685,-0.03791755437850952,0.1977922916412354,2,0.7149362171840858,0.09479602476471652,-0.08002405198141543,0.6880959235467501,0.2448817044496536,-0.9687174558639526,0.04024016112089157,-4.786933898925781,-46.60945892333984,19.25848388671875,2
1596230035.105385,94,0,102367.289598,-1.718295368538086,1.749952716996009,1.31697014226382,0.0188231710344553,0.3121078312397003,-0.2516036927700043,0.01416942477226257,0.006036698818206787,0.08774054050445557,2,0.7158848757182331,0.09941119413058669,-0.07720703406351065,0.6867788654257303,0.2470897138118744,-0.9679587483406067,0.0447474829852581,-4.952095031738281,-46.32927703857422,19.63720703125,2
1596230035.135283,95,0,102367.319695,-1.719169124573856,1.752689037775399,1.311626295432744,0.03448094055056572,-0.08391553163528442,-0.002402769401669502,0.1284503042697906,0.007592320442199707,-0.01083111763000488,2,0.7161000333305899,0.1018823517272807,-0.07838002266722952,0.686059244797979,0.252050518989563,-0.9666030406951904,0.04635854437947273,-4.769287109375,-46.48738098144531,19.5106201171875,2
1596230035.165429,96,0,102367.349792,-1.729474640303091,1.754883342521498,1.313788456932851,0.1466614603996277,-0.3374963402748108,0.0331864207983017,-0.04410597681999207,-0.02967453002929688,-0.09735357761383057,2,0.7166740034313267,0.09819728082080004,-0.08037923846329481,0.6857657108289885,0.249892070889473,-0.967154860496521,0.04652866721153259,-5.112754821777344,-46.382080078125,19.59671020507812,2
1596230035.195422,97,0,102367.379889,-1.744832602715546,1.763947333612465,1.307801629834298,0.05533019080758095,-0.03555715829133987,-0.3069179952144623,-0.07116681337356567,0.02500933408737183,0.1918759346008301,2,0.7178964801604425,0.09785621458531243,-0.08445695372741005,0.6840436401790649,0.2551385462284088,-0.9656157493591309,0.04990239068865776,-4.919731140136719,-46.45667266845703,19.73257446289062,2
1596230035.225715,98,0,102367.409986,-1.733163943872453,1.753789444016838,1.301542289831132,-0.0751093253493309,0.1027286648750305,-0.06004973500967026,0.1040924191474915,-0.07295727729797363,0.1424880027770996,2,0.7169787195172934,0.1007228718325271,-0.08627066579978115,0.6843637277537642,0.2615706324577332,-0.9639695882797241,0.04840716347098351,-4.170555114746094,-46.30026245117188,19.78854370117188,2
1596230035.255669,99,0,102367.440083,-1.718293666687646,1.737297570944961,1.306549870401255,-0.2641795873641968,-0.3311718106269836,0.2404401749372482,0.06125706434249878,-0.07810449600219727,-0.05024409294128418,2,0.7154773361885202,0.09866805545423704,-0.08534758556831806,0.6863472103514463,0.2575696110725403,-0.9652895927429199,0.04328640922904015,-4.333236694335938,-46.31244659423828,19.71099853515625,2
1596230035.285874,100,0,102367.47018,-1.692267058302978,1.703856793993892,1.309856219858192,-0.1919349730014801,-0.1235568225383759,-0.09123704582452774,0.02003785967826843,0.1457113027572632,0.06028664112091064,2,0.7127613901559767,0.09531328705475817,-0.08718780480404514,0.6894089621146846,0.255707859992981,-0.9661478400230408,0.03422684222459793,-4.323226928710938,-46.29244995117188,19.351806640625,2
1596230035.31578,101,0,102367.500277,-1.677031535445906,1.685171397751346,1.310625918304768,-0.1249106377363205,-0.253516674041748,0.2175039798021317,-0.01561325788497925,-0.06864160299301147,0.01527869701385498,2,0.7112237487311307,0.09402077905324763,-0.08831367488880912,0.6910292282677317,0.2555637657642365,-0.9663461446762085,0.02935825474560261,-4.343208312988281,-46.62846374511719,19.15234375,2
1596230035.346054,102,0,102367.530374,-1.644198009654942,1.647235485697214,1.317842559206968,-0.4426050186157227,-0.04372901096940041,0.04958729445934296,-0.06312167644500732,0.007447898387908936,0.118849515914917,2,0.7081341558735292,0.09000959746977535,-0.08787893414272832,0.6947817084088823,0.2495341897010803,-0.9681774377822876,0.01911142095923424,-4.333099365234375,-46.37329864501953,18.90036010742188,2
1596230035.376086,103,0,102367.560471,-1.614726582979675,1.619026894347859,1.316180948449942,-0.01883329451084137,-0.04576800018548965,0.01535516604781151,0.1103726625442505,0.1381288170814514,-0.08235585689544678,2,0.7055182842456305,0.091189799612792,-0.08817363081617458,0.6972472128487435,0.2515798807144165,-0.9677602648735046,0.01214325800538063,-4.498489379882812,-47.02321624755859,18.34951782226562,2
1596230035.406232,104,0,102367.590568,-1.595946270151317,1.593745806629205,1.325871832130318,-0.3927213847637177,-0.3137926459312439,0.4669301807880402,0.004147768020629883,-0.1101911664009094,0.08816039562225342,2,0.7038878976548352,0.08558044519506217,-0.08712475473769629,0.6997335729039971,0.2424191385507584,-0.970155656337738,0.005564370192587376,-4.745033264160156,-46.96568298339844,18.210205078125,2
1596230035.43635,105,0,102367.620665,-1.542684965692628,1.535888419274434,1.333212218802272,-0.2862686514854431,-0.02758514881134033,-0.02435936592519283,-0.1710281372070312,0.0523068904876709,-0.008333683013916016,2,0.6994792768436114,0.08137376360487075,-0.08614576914170119,0.7047595597848444,0.2352122366428375,-0.9719094038009644,-0.008214103989303112,-5.0540771484375,-47.28950500488281,17.66552734375,2
1596230035.466494,106,0,102367.650762,-1.528221366772416,1.526409390984461,1.329694476766073,-0.1024408563971519,0.1687067002058029,-0.05214069038629532,-0.1141108572483063,0.03240364789962769,-0.0287785530090332,2,0.6982783994469981,0.0843197439719986,-0.08559170546198649,0.7056709865171993,0.2385376691818237,-0.9710754752159119,-0.01059491559863091,-4.992515563964844,-47.39328002929688,17.47164916992188,2
1596230035.496797,107,0,102367.680859,-1.504965822404108,1.506982174846786,1.330670813941672,-0.202263668179512,0.177155613899231,0.05602176859974861,-0.007215291261672974,0.02737534046173096,0.006188571453094482,2,0.6965298679086949,0.08522326645823028,-0.08380775420497152,0.7075022328627698,0.23734050989151,-0.9713081121444702,-0.01516627613455057,-5.073478698730469,-47.32935333251953,17.10125732421875,2
1596230035.526692,108,0,102367.710956,-1.479634322306,1.487540820484715,1.332089509325713,-0.1648546010255814,0.05011044442653656,0.08285576850175858,-0.05165189504623413,0.02800643444061279,-0.06013166904449463,2,0.6947375687495418,0.08665079206369919,-0.0810998414501303,0.7094040475067187,0.2356270551681519,-0.9716445803642273,-0.01966270245611668,-5.091812133789062,-47.25944519042969,17.017333984375,2
1596230035.556738,109,0,102367.741053,-1.459414027687549,1.469781494528261,1.332017124573456,-0.1997298747301102,-0.003525938838720322,-0.08935235440731049,-0.0461280345916748,-0.008448660373687744,-0.04717439413070679,2,0.6931365281703681,0.08738553201886984,-0.08010684328112785,0.7109910933720138,0.2353106290102005,-0.971627414226532,-0.02385104447603226,-5.490585327148438,-47.62115478515625,16.68634033203125,2
1596230035.586884,110,0,102367.77115,-1.44504439423244,1.452951651361437,1.326765348504265,-0.09055197238922119,-0.1216833293437958,-0.191353976726532,0.09821273386478424,0.07278347015380859,0.004668891429901123,2,0.6913876636808188,0.08820122492474883,-0.08265153337738065,0.7123007080624453,0.2399400919675827,-0.9703719019889832,-0.02840728498995304,-5.392547607421875,-47.87570190429688,16.49139404296875,2
1596230035.616861,111,0,102367.801247,-1.412281433043727,1.413667344491983,1.32308207453194,-0.5007801651954651,-0.520343542098999,0.1297822743654251,0.004508808255195618,-0.1765680313110352,0.1100388765335083,2,0.6879602369221638,0.08675697886510278,-0.08578449873158348,0.7154194008649509,0.2421679049730301,-0.9694753885269165,-0.03836787864565849,-5.095199584960938,-47.85013580322266,16.18695068359375,2
1596230035.647068,112,0,102367.831344,-1.341839139161902,1.333626211291668,1.32561567460156,-0.4505922794342041,-0.046733058989048,0.03882382437586784,-0.2583717405796051,0.1240156292915344,0.1132515668869019,2,0.6818236892269546,0.08124781120904787,-0.08701162851820832,0.7217646695878703,0.235936775803566,-0.9700934886932373,-0.05703049898147583,-5.009872436523438,-47.94120025634766,15.791015625,2
1596230035.67703,113,0,102367.861441,-1.315424596711561,1.317676381259429,1.315157244724084,-0.1777680665254593,0.5209134221076965,-0.4787439107894897,-0.06158114969730377,0.1602227687835693,0.03318840265274048,2,0.6786672162486607,0.08802829710691992,-0.08644903468046161,0.7240086095678822,0.2448067367076874,-0.9675018787384033,-0.06332365423440933,-5.01678466796875,-48.34587097167969,15.0333251953125,2
1596230035.707251,114,0,102367.891538,-1.297748333229259,1.311544834558411,1.304624222181612,-0.4003808200359344,0.1578341573476791,-0.008394469507038593,0.1722259521484375,-0.1792006492614746,-0.008775055408477783,2,0.676158586123069,0.09535950664474072,-0.08569025142180547,0.7255159021046678,0.2542500793933868,-0.9647848606109619,-0.06743226200342178,-4.521385192871094,-48.26870727539062,14.81204223632812,2
1596230035.737353,115,0,102367.921636,-1.245217078734936,1.260014115949985,1.305582169491615,-0.2825771272182465,-0.06361028552055359,0.1706725209951401,0.0831073522567749,0.04203188419342041,-0.08363282680511475,2,0.6716312787213355,0.09398582710156839,-0.08361469836191204,0.7301279833199268,0.2495598644018173,-0.9650363922119141,-0.08015617728233337,-4.647621154785156,-48.6190185546875,14.03121948242188,2
1596230035.767483,116,0,102367.951733,-1.226914287714737,1.2411866336728,1.305542390289805,-0.1646932810544968,-0.109691709280014,-0.04646281898021698,-0.1224473714828491,0.02306991815567017,-0.02688640356063843,2,0.6699827286338716,0.09325676227683755,-0.08325340531949527,0.7317754664348456,0.2480427026748657,-0.9650259613990784,-0.08485263586044312,-4.726242065429688,-48.73080444335938,13.92117309570312,2
1596230035.797461,117,0,102367.98183,-1.210357236907581,1.223051149637208,1.299792452951828,-0.1416434943675995,0.05205743759870529,-0.2080169171094894,-0.07791119813919067,0.04664170742034912,0.01413434743881226,2,0.6674900591502096,0.09404227846395954,-0.08514866358425155,0.7337321217806582,0.2516754567623138,-0.9635026454925537,-0.09122613817453384,-4.577804565429688,-48.83382415771484,13.5142822265625,2
1596230035.82796,118,0,102368.011927,-1.205107971818504,1.219922008098058,1.294474823525371,-0.1447633653879166,0.02515747398138046,-0.0294741615653038,0.05495774745941162,-0.04473447799682617,0.00209730863571167,2,0.666200336738711,0.09638779107665241,-0.08601259886503054,0.7344987551354791,0.2561966776847839,-0.9620655179023743,-0.0937730073928833,-4.442764282226562,-48.82127380371094,13.52203369140625,2
1596230035.857556,119,0,102368.042024,-1.179027367240825,1.193365397884199,1.293275580659968,-0.2380873113870621,-0.1593521535396576,0.05055098980665207,0.0168440043926239,0.03290605545043945,0.003452956676483154,2,0.6635973959251569,0.09567957471334965,-0.08563859079443759,0.7369870449005307,0.2546882927417755,-0.9617376327514648,-0.1009678319096565,-4.255256652832031,-48.74266052246094,12.92459106445312,2
1596230035.887816,120,0,102368.072121,-1.155747619974122,1.17182187689298,1.291442725308654,-0.2899936735630035,0.3094979226589203,-0.007290174253284931,0.03223276138305664,-0.02531313896179199,0.06156337261199951,2,0.6612263256401223,0.09603109180753086,-0.08477569245980765,0.7391690561204098,0.2540782690048218,-0.9612338542938232,-0.1071155518293381,-4.495262145996094,-49.16745758056641,12.500244140625,2
1596230035.917888,121,0,102368.1022171667,-1.117464393912362,1.140549252248826,1.289571115646171,-0.3019159734249115,0.01850622892379761,0.1584019958972931,-0.05417561531066895,-0.1242724061012268,-0.1380062699317932,2,0.6577099083752106,0.09766692744421188,-0.08150493355758226,0.7424525489590932,0.252239316701889,-0.9607161283493042,-0.1157576963305473,-4.661392211914062,-49.15319061279297,12.34088134765625,2
1596230035.948021,122,0,102368.1323141667,-1.102235551407483,1.12723677845573,1.287309435293203,-0.1648688018321991,-0.02615994587540627,-0.2183497250080109,-0.08610436320304871,0.05889618396759033,-0.002595603466033936,2,0.6559665412041057,0.09843337377751957,-0.08093258813369164,0.7439547977998165,0.2526381015777588,-0.9600859880447388,-0.1200375333428383,-4.800209045410156,-49.02959442138672,11.82296752929688,2
1596230035.978005,123,0,102368.1624111667,-1.092902724017486,1.11778377117595,1.278483334776788,-0.1160074770450592,0.02799465693533421,-0.07129349559545517,0.06037592887878418,0.05168688297271729,0.04837316274642944,2,0.6532929617796263,0.1007282258475579,-0.08332269843587792,0.7457341956798619,0.2591012418270111,-0.9575799107551575,-0.1261242628097534,-4.468254089355469,-49.26728057861328,11.74151611328125,2
1596230036.0083,124,0,102368.1925081667,-1.082950402774694,1.106332226229925,1.2807794315491,-0.1410555094480515,-0.203987643122673,0.1535085886716843,0.09798377752304077,-0.06493967771530151,-0.003169536590576172,2,0.6528030127073616,0.09899148145972952,-0.0826319329845463,0.7464723202064469,0.2556735575199127,-0.9582390189170837,-0.1280978322029114,-4.484657287597656,-49.16365814208984,11.5244140625,2
1596230036.03873,125,0,102368.2226051667,-1.062689591890303,1.077995652594762,1.280972736305506,-0.1286239922046661,-0.343308687210083,0.008518660441040993,-0.06040725111961365,0.01165461540222168,-0.07113373279571533,2,0.6506800079032816,0.09494251291029096,-0.08423304071891474,0.7486697659157031,0.2517786920070648,-0.9582943320274353,-0.1352028995752335,-4.309928894042969,-49.05295562744141,11.37445068359375,2
1596230036.070973,126,0,102368.2527021667,-1.045897992527695,1.055107884707503,1.276347057122786,-0.2818329632282257,0.03752436861395836,-0.08349407464265823,-0.1227248013019562,0.05106115341186523,0.09348440170288086,2,0.6478831306282927,0.09322290986848022,-0.08678100673841455,0.7510166775450925,0.2524718344211578,-0.9569621086120605,-0.1431138813495636,-4.310043334960938,-49.16178894042969,11.0518798828125,2
1596230036.098432,127,0,102368.2827991667,-1.032268864843243,1.047610989301875,1.27413796203799,-0.01454705558717251,0.1384411007165909,0.1009329333901405,0.06290054321289062,-0.0009372234344482422,-0.04908454418182373,2,0.6464160409417131,0.0954831284824032,-0.08475383844245488,0.7522274632985632,0.2532225549221039,-0.9563186764717102,-0.1460585445165634,-4.164382934570312,-49.20816802978516,10.80062866210938,2
1596230036.130792,128,0,102368.3128961667,-1.017492275877016,1.030101707765897,1.277999725315994,-0.1227588728070259,-0.3156683146953583,0.2259583175182343,0.09092873334884644,0.01133847236633301,-0.06627118587493896,2,0.6458778207036497,0.09250963181314348,-0.08368885443082336,0.7531799776771022,0.247458353638649,-0.9574404358863831,-0.1485676169395447,-4.305892944335938,-49.02434539794922,10.65142822265625,2
1596230036.158852,129,0,102368.3429931667,-0.9922465706570798,0.9961478513619867,1.281204556780287,-0.1792200356721878,-0.2939253449440002,0.1945488899946213,-0.006046786904335022,0.007799804210662842,0.05209821462631226,2,0.6440821503880544,0.08689785321608276,-0.08416810119616019,0.7553295677856156,0.2396953850984573,-0.9583605527877808,-0.1552138924598694,-4.587821960449219,-49.28727722167969,10.72171020507812,2
1596230036.190754,130,0,102368.3730901667,-0.9705889347187601,0.9718611357731493,1.282419623248193,-0.1133399307727814,0.04070847108960152,0.1259694844484329,-0.02927160263061523,0.02902495861053467,0.0092812180519104,2,0.6424350913772578,0.08432684198179466,-0.08343659518612939,0.757102702065916,0.2348933517932892,-0.958706796169281,-0.1603322774171829,-4.703109741210938,-49.23739624023438,10.426025390625,2
1596230036.218722,131,0,102368.4031871667,-0.9492442365115956,0.9532907044259433,1.284465648778321,-0.1120327860116959,0.06546537578105927,0.1773682981729507,-0.001703739166259766,-0.03975367546081543,0.001169919967651367,2,0.6412904968591506,0.08355401912093754,-0.08072200939101387,0.7584518829505418,0.2302759140729904,-0.9592866897583008,-0.1635304540395737,-4.948822021484375,-49.42843627929688,10.12847900390625,2
1596230036.250937,132,0,102368.4332841667,-0.9311407219958889,0.9364356614459117,1.286381648755951,-0.08879555761814117,0.01117892377078533,0.1366154998540878,0.02799904346466064,0.05181175470352173,0.02416253089904785,2,0.6403580075154336,0.08241562187984386,-0.07870933298515542,0.7595749578534434,0.2260059863328934,-0.9598260521888733,-0.1662985682487488,-5.402740478515625,-49.31027984619141,10.08145141601562,2
1596230036.279032,133,0,102368.4633811667,-0.9080673696713535,0.9142331341992643,1.288805932706089,-0.1851657330989838,-0.0534997396171093,0.2594048380851746,0.05038882791996002,-0.06386524438858032,-0.0003706216812133789,2,0.6391895769627732,0.08068050313530276,-0.07636392240035106,0.7609836523911575,0.2204151302576065,-0.9605034589767456,-0.1698546856641769,-5.459083557128906,-49.21052551269531,9.90362548828125,2
1596230036.311446,134,0,102368.4934781667,-0.8862949909157766,0.8872978891030282,1.291491481657892,0.02699604071676731,-0.2007263004779816,0.08132543414831161,-0.0788065493106842,0.04537886381149292,-0.08000743389129639,2,0.6380257252794164,0.07663836636766552,-0.0759361144763015,0.7624195365754656,0.213759571313858,-0.9612473249435425,-0.17409947514534,-6.105514526367188,-49.48335266113281,9.665313720703125,2
1596230036.339168,135,0,102368.5235751667,-0.8735975815799777,0.8727468178616055,1.290268799414592,-0.2536255717277527,0.09584073722362518,0.05066371709108353,-0.04125493764877319,0.01729631423950195,0.09462159872055054,2,0.6366570309730498,0.07546290261200264,-0.0760585753965356,0.7636676215388949,0.2121036052703857,-0.9609095454216003,-0.1779463440179825,-5.991996765136719,-49.46023559570312,9.759490966796875,2
1596230036.371526,136,0,102368.5536721667,-0.8372626848865805,0.8431263124243206,1.286833693122105,-0.4119980037212372,0.1365379989147186,0.2335410416126251,-0.01912075281143188,-0.0366213321685791,0.003660678863525391,2,0.6332174439810848,0.0765734288533591,-0.07246894447302865,0.7667596651635435,0.2092040330171585,-0.9599527716636658,-0.1863443553447723,-6.186187744140625,-49.35609436035156,9.302459716796875,2
